trial_nr	onset	event_type	phase	response	nr_frames	n_dots	sphere_radius	dot_size	rotation_speed	depth_mod_center	depth_mod_amp	ambiguous_dot_size	onset_abs	duration
0	0.003245099999986678	text	0		2952								2.1387208999999814	24.600744300000002
0	24.58791450000001	response	0	space									26.723390300000005	
1	24.60398939999999	phase0	0		214	200.0	2.0	0.15	2.0	0.75	0.25	0.2	26.739465199999984	1.7832965000000058
1	26.387285899999995	phase1	1		479	200.0	2.0	0.15	2.0	0.75	0.25	0.2	28.52276169999999	3.9920820000000106
1	30.379367900000005	phase2	2		24	200.0	2.0	0.15	2.0	0.75	0.25	0.2	32.5148437	0.2000203000000056
1	30.57938820000001	phase3	3		361	200.0	2.0	0.15	2.0	0.75	0.25	0.2	32.714864000000006	3.0082213000000024
1	31.521878200000003	response	3	right		200.0	2.0	0.15	2.0	0.75	0.25	0.2	33.657354	
2	33.58760950000001	phase0	0		156	200.0	2.0	0.15	2.0	0.75	0.25	0.2	35.72308530000001	1.2999400999999864
2	34.8875496	phase1	1		480	200.0	2.0	0.15	2.0	0.75	0.25	0.2	37.023025399999995	3.9999540000000025
2	38.8875036	phase2	2		12	200.0	2.0	0.15	2.0	0.75	0.25	0.2	41.0229794	0.09994530000000168
2	38.987448900000004	phase3	3		360	200.0	2.0	0.15	2.0	0.75	0.25	0.2	41.1229247	2.999857700000007
2	40.25425039999999	response	3	right		200.0	2.0	0.15	2.0	0.75	0.25	0.2	42.389726199999984	
3	41.98730660000001	phase0	0		211	200.0	2.0	0.15	2.0	0.75	0.25	0.2	44.122782400000006	1.7565763999999717
3	43.74388299999998	phase1	1		480	200.0	2.0	0.15	2.0	0.75	0.25	0.2	45.87935879999998	4.001587900000004
3	47.74547089999999	phase2	2		24	200.0	2.0	0.15	2.0	0.75	0.25	0.2	49.88094669999998	0.20000850000002401
3	47.94547940000001	phase3	3		360	200.0	2.0	0.15	2.0	0.75	0.25	0.2	50.080955200000005	2.999891600000012
3	48.94565610000001	response	3	right		200.0	2.0	0.15	2.0	0.75	0.25	0.2	51.0811319	
4	50.94537100000002	phase0	0		261	200.0	2.0	0.15	2.0	0.75	0.25	0.2	53.08084680000002	2.17492679999998
4	53.1202978	phase1	1		480	200.0	2.0	0.15	2.0	0.75	0.25	0.2	55.2557736	3.999913699999979
4	57.12021149999998	phase2	2		18	200.0	2.0	0.15	2.0	0.75	0.25	0.2	59.25568729999998	0.14999990000001162
4	57.270211399999994	phase3	3		360	200.0	2.0	0.15	2.0	0.75	0.25	0.2	59.40568719999999	2.9998562000000106
4	58.5620275	response	3	right		200.0	2.0	0.15	2.0	0.75	0.25	0.2	60.697503299999994	
5	60.270067600000004	phase0	0		273	200.0	2.0	0.15	2.0	0.75	0.25	0.2	62.4055434	2.274965800000018
5	62.54503340000002	phase1	1		480	200.0	2.0	0.15	2.0	0.75	0.25	0.2	64.68050920000002	3.999906499999952
5	66.54493989999997	phase2	2		18	200.0	2.0	0.15	2.0	0.75	0.25	0.2	68.68041569999997	0.14994270000005372
5	66.69488260000003	phase3	3		360	200.0	2.0	0.15	2.0	0.75	0.25	0.2	68.83035840000002	2.999928299999965
5	67.93673460000002	response	3	right		200.0	2.0	0.15	2.0	0.75	0.25	0.2	70.07221040000002	
6	69.6948109	phase0	0		157	200.0	2.0	0.15	2.0	0.75	0.25	0.2	71.83028669999999	1.30825040000002
6	71.00306130000001	phase1	1		480	200.0	2.0	0.15	2.0	0.75	0.25	0.2	73.13853710000001	3.999869600000011
6	75.00293090000002	phase2	2		18	200.0	2.0	0.15	2.0	0.75	0.25	0.2	77.13840670000002	0.1500113999999826
6	75.1529423	phase3	3		360	200.0	2.0	0.15	2.0	0.75	0.25	0.2	77.2884181	2.9998762999999826
6	76.47812420000002	response	3	right		200.0	2.0	0.15	2.0	0.75	0.25	0.2	78.61360000000002	
7	78.15281859999999	phase0	0		177	200.0	2.0	0.15	2.0	0.75	0.25	0.2	80.28829439999998	1.473383800000022
7	79.62620240000001	phase1	1		480	200.0	2.0	0.15	2.0	0.75	0.25	0.2	81.7616782	4.001535999999987
7	83.6277384	phase2	2		0	200.0	2.0	0.15	2.0	0.75	0.25	0.2	85.7632142	0.002189100000009603
7	83.62992750000001	phase3	3		359	200.0	2.0	0.15	2.0	0.75	0.25	0.2	85.7654033	2.9976384999999937
7	85.30283259999999	response	3	right		200.0	2.0	0.15	2.0	0.75	0.25	0.2	87.43830839999998	
8	86.627566	phase0	0		143	200.0	2.0	0.15	2.0	0.75	0.25	0.2	88.7630418	1.1916347999999743
8	87.81920079999998	phase1	1		479	200.0	2.0	0.15	2.0	0.75	0.25	0.2	89.95467659999997	3.999885900000038
8	91.81908670000001	phase2	2		12	200.0	2.0	0.15	2.0	0.75	0.25	0.2	93.95456250000001	0.10001139999997122
8	91.91909809999999	phase3	3		360	200.0	2.0	0.15	2.0	0.75	0.25	0.2	94.05457389999998	2.999864900000034
8	93.93597549999998	response	3	right		200.0	2.0	0.15	2.0	0.75	0.25	0.2	96.07145129999998	
9	94.91896300000002	phase0	0		172	200.0	2.0	0.15	2.0	0.75	0.25	0.2	97.05443880000001	1.4315720999999826
9	96.3505351	phase1	1		480	200.0	2.0	0.15	2.0	0.75	0.25	0.2	98.4860109	4.001634299999978
9	100.35216939999998	phase2	2		0	200.0	2.0	0.15	2.0	0.75	0.25	0.2	102.48764519999997	0.002328300000044692
9	100.35449770000002	phase3	3		359	200.0	2.0	0.15	2.0	0.75	0.25	0.2	102.48997350000002	2.997557699999959
9	101.58567749999997	response	3	left		200.0	2.0	0.15	2.0	0.75	0.25	0.2	103.72115329999997	
10	103.35205539999998	phase0	0		192	200.0	2.0	0.15	2.0	0.75	0.25	0.2	105.48753119999998	1.5999532000000158
10	104.9520086	phase1	1		480	200.0	2.0	0.15	2.0	0.75	0.25	0.2	107.0874844	3.9998595999999793
10	108.95186819999998	phase2	2		18	200.0	2.0	0.15	2.0	0.75	0.25	0.2	111.08734399999997	0.14830060000002732
10	109.1001688	phase3	3		360	200.0	2.0	0.15	2.0	0.75	0.25	0.2	111.2356446	3.0016171999999983
10	111.0187884	response	3	left		200.0	2.0	0.15	2.0	0.75	0.25	0.2	113.1542642	
11	112.101786	phase0	0		279	200.0	2.0	0.15	2.0	0.75	0.25	0.2	114.2372618	2.3249362999999903
11	114.4267223	phase1	1		480	200.0	2.0	0.15	2.0	0.75	0.25	0.2	116.56219809999999	3.999834899999996
11	118.42655719999999	phase2	2		18	200.0	2.0	0.15	2.0	0.75	0.25	0.2	120.56203299999999	0.1500068000000283
11	118.57656400000002	phase3	3		360	200.0	2.0	0.15	2.0	0.75	0.25	0.2	120.71203980000001	2.99989869999996
11	119.9855526	response	3	right		200.0	2.0	0.15	2.0	0.75	0.25	0.2	122.1210284	
12	121.57646269999998	phase0	0		323	200.0	2.0	0.15	2.0	0.75	0.25	0.2	123.71193849999997	2.691595600000028
12	124.2680583	phase1	1		480	200.0	2.0	0.15	2.0	0.75	0.25	0.2	126.4035341	3.9998779000000013
12	128.2679362	phase2	2		18	200.0	2.0	0.15	2.0	0.75	0.25	0.2	130.403412	0.149986599999977
12	128.41792279999999	phase3	3		360	200.0	2.0	0.15	2.0	0.75	0.25	0.2	130.55339859999998	2.999897200000021
12	129.8014392	response	3	left		200.0	2.0	0.15	2.0	0.75	0.25	0.2	131.936915	
13	131.41782	phase0	0		337	200.0	2.0	0.15	2.0	0.75	0.25	0.2	133.5532958	2.808265000000006
13	134.226085	phase1	1		480	200.0	2.0	0.15	2.0	0.75	0.25	0.2	136.3615608	3.999844399999972
13	138.22592939999998	phase2	2		36	200.0	2.0	0.15	2.0	0.75	0.25	0.2	140.36140519999998	0.29998829999999543
13	138.52591769999998	phase3	3		360	200.0	2.0	0.15	2.0	0.75	0.25	0.2	140.66139349999997	2.9999048000000244
13	139.65112620000002	response	3	left		200.0	2.0	0.15	2.0	0.75	0.25	0.2	141.78660200000002	
14	141.5258225	phase0	0		155	200.0	2.0	0.15	2.0	0.75	0.25	0.2	143.6612983	1.2899138999999877
14	142.8157364	phase1	1		480	200.0	2.0	0.15	2.0	0.75	0.25	0.2	144.9512122	4.00161159999999
14	146.81734799999998	phase2	2		18	200.0	2.0	0.15	2.0	0.75	0.25	0.2	148.95282379999998	0.1500063999999952
14	146.96735439999998	phase3	3		360	200.0	2.0	0.15	2.0	0.75	0.25	0.2	149.10283019999997	2.999877300000037
14	148.13425790000002	response	3	left		200.0	2.0	0.15	2.0	0.75	0.25	0.2	150.26973370000002	
15	149.9672317	phase0	0		343	200.0	2.0	0.15	2.0	0.75	0.25	0.2	152.1027075	2.858240299999977
15	152.825472	phase1	1		480	200.0	2.0	0.15	2.0	0.75	0.25	0.2	154.96094779999999	3.999892700000032
15	156.82536470000002	phase2	2		6	200.0	2.0	0.15	2.0	0.75	0.25	0.2	158.96084050000002	0.04997209999999086
15	156.8753368	phase3	3		360	200.0	2.0	0.15	2.0	0.75	0.25	0.2	159.0108126	2.999933599999963
15	158.3338607	response	3	left		200.0	2.0	0.15	2.0	0.75	0.25	0.2	160.4693365	
16	159.87527039999998	phase0	0		163	200.0	2.0	0.15	2.0	0.75	0.25	0.2	162.01074619999997	1.3565440000000422
16	161.23181440000002	phase1	1		480	200.0	2.0	0.15	2.0	0.75	0.25	0.2	163.3672902	4.001612299999977
16	165.2334267	phase2	2		12	200.0	2.0	0.15	2.0	0.75	0.25	0.2	167.3689025	0.09999940000000151
16	165.3334261	phase3	3		360	200.0	2.0	0.15	2.0	0.75	0.25	0.2	167.4689019	2.999873799999989
16	166.3419472	response	3	right		200.0	2.0	0.15	2.0	0.75	0.25	0.2	168.477423	
17	168.3332999	phase0	0		274	200.0	2.0	0.15	2.0	0.75	0.25	0.2	170.46877569999998	2.283280999999988
17	170.61658089999997	phase1	1		480	200.0	2.0	0.15	2.0	0.75	0.25	0.2	172.75205669999997	3.9999398000000497
17	174.61652070000002	phase2	2		24	200.0	2.0	0.15	2.0	0.75	0.25	0.2	176.75199650000002	0.19997509999996055
17	174.81649579999998	phase3	3		360	200.0	2.0	0.15	2.0	0.75	0.25	0.2	176.95197159999998	2.9998090000000275
17	175.9065094	response	3	left		200.0	2.0	0.15	2.0	0.75	0.25	0.2	178.0419852	
18	177.8163048	phase0	0		210	200.0	2.0	0.15	2.0	0.75	0.25	0.2	179.9517806	1.74999600000001
18	179.56630080000002	phase1	1		480	200.0	2.0	0.15	2.0	0.75	0.25	0.2	181.70177660000002	3.9998851999999943
18	183.56618600000002	phase2	2		36	200.0	2.0	0.15	2.0	0.75	0.25	0.2	185.7016618	0.2999806999999919
18	183.8661667	phase3	3		360	200.0	2.0	0.15	2.0	0.75	0.25	0.2	186.0016425	2.9998994999999695
18	185.19134910000002	response	3	left		200.0	2.0	0.15	2.0	0.75	0.25	0.2	187.32682490000002	
19	186.86606619999998	phase0	0		178	200.0	2.0	0.15	2.0	0.75	0.25	0.2	189.00154199999997	1.4833145000000059
19	188.34938069999998	phase1	1		480	200.0	2.0	0.15	2.0	0.75	0.25	0.2	190.48485649999998	3.9998588999999924
19	192.34923959999998	phase2	2		24	200.0	2.0	0.15	2.0	0.75	0.25	0.2	194.48471539999997	0.200018200000045
19	192.54925780000002	phase3	3		360	200.0	2.0	0.15	2.0	0.75	0.25	0.2	194.68473360000002	2.9998817999999687
19	194.48291590000002	response	3	left		200.0	2.0	0.15	2.0	0.75	0.25	0.2	196.61839170000002	
20	195.5491396	phase0	0		330	200.0	2.0	0.15	2.0	0.75	0.25	0.2	197.68461539999998	2.749906699999997
20	198.2990463	phase1	1		480	200.0	2.0	0.15	2.0	0.75	0.25	0.2	200.43452209999998	3.999870200000032
20	202.29891650000002	phase2	2		18	200.0	2.0	0.15	2.0	0.75	0.25	0.2	204.4343923	0.15004940000000033
20	202.44896590000002	phase3	3		360	200.0	2.0	0.15	2.0	0.75	0.25	0.2	204.5844417	2.999896499999977
20	203.7907864	response	3	right		200.0	2.0	0.15	2.0	0.75	0.25	0.2	205.9262622	
21	205.4488624	phase0	0		252	200.0	2.0	0.15	2.0	0.75	0.25	0.2	207.5843382	2.099880100000007
21	207.5487425	phase1	1		480	200.0	2.0	0.15	2.0	0.75	0.25	0.2	209.6842183	3.999892999999986
21	211.5486355	phase2	2		18	200.0	2.0	0.15	2.0	0.75	0.25	0.2	213.68411129999998	0.15000380000003588
21	211.69863930000002	phase3	3		360	200.0	2.0	0.15	2.0	0.75	0.25	0.2	213.83411510000002	2.999938899999961
21	212.48173889999998	response	3	right		200.0	2.0	0.15	2.0	0.75	0.25	0.2	214.61721469999998	
22	214.6985782	phase0	0		300	200.0	2.0	0.15	2.0	0.75	0.25	0.2	216.83405399999998	2.499869999999987
22	217.19844819999997	phase1	1		480	200.0	2.0	0.15	2.0	0.75	0.25	0.2	219.33392399999997	3.9998608000000218
22	221.198309	phase2	2		0	200.0	2.0	0.15	2.0	0.75	0.25	0.2	223.3337848	0.0021047999999836975
22	221.20041379999998	phase3	3		360	200.0	2.0	0.15	2.0	0.75	0.25	0.2	223.33588959999997	2.9978030999999987
22	222.82349390000002	response	3	left		200.0	2.0	0.15	2.0	0.75	0.25	0.2	224.9589697	
23	224.19821689999998	phase0	0		209	200.0	2.0	0.15	2.0	0.75	0.25	0.2	226.33369269999997	1.7416046000000165
23	225.9398215	phase1	1		480	200.0	2.0	0.15	2.0	0.75	0.25	0.2	228.0752973	3.999944200000016
23	229.9397657	phase2	2		30	200.0	2.0	0.15	2.0	0.75	0.25	0.2	232.0752415	0.24993339999997488
23	230.18969909999998	phase3	3		360	200.0	2.0	0.15	2.0	0.75	0.25	0.2	232.32517489999998	2.9999053999999887
23	231.6816053	response	3	right		200.0	2.0	0.15	2.0	0.75	0.25	0.2	233.8170811	
24	233.18960449999997	phase0	0		150	200.0	2.0	0.15	2.0	0.75	0.25	0.2	235.32508029999997	1.2499564000000305
24	234.4395609	phase1	1		480	200.0	2.0	0.15	2.0	0.75	0.25	0.2	236.5750367	3.999880399999995
24	238.4394413	phase2	2		12	200.0	2.0	0.15	2.0	0.75	0.25	0.2	240.5749171	0.09999260000000731
24	238.5394339	phase3	3		360	200.0	2.0	0.15	2.0	0.75	0.25	0.2	240.6749097	2.9999530999999706
24	239.5213756	response	3	right		200.0	2.0	0.15	2.0	0.75	0.25	0.2	241.6568514	
25	241.53938699999998	phase0	0		278	200.0	2.0	0.15	2.0	0.75	0.25	0.2	243.67486279999997	2.316562900000008
25	243.85594989999998	phase1	1		480	200.0	2.0	0.15	2.0	0.75	0.25	0.2	245.99142569999998	3.9998606000000336
25	247.85581050000002	phase2	2		30	200.0	2.0	0.15	2.0	0.75	0.25	0.2	249.9912863	0.25002949999998236
25	248.10584	phase3	3		360	200.0	2.0	0.15	2.0	0.75	0.25	0.2	250.2413158	2.9998689999999897
25	249.39773150000002	response	3	left		200.0	2.0	0.15	2.0	0.75	0.25	0.2	251.53320730000002	
26	251.105709	phase0	0		246	200.0	2.0	0.15	2.0	0.75	0.25	0.2	253.24118479999998	2.0499216000000047
26	253.1556306	phase1	1		480	200.0	2.0	0.15	2.0	0.75	0.25	0.2	255.2911064	3.9998702999999978
26	257.1555009	phase2	2		18	200.0	2.0	0.15	2.0	0.75	0.25	0.2	259.2909767	0.15000420000001213
26	257.3055051	phase3	3		360	200.0	2.0	0.15	2.0	0.75	0.25	0.2	259.4409809	2.999931800000013
26	258.2955273	response	3	right		200.0	2.0	0.15	2.0	0.75	0.25	0.2	260.4310031	
27	260.3054369	phase0	0		202	200.0	2.0	0.15	2.0	0.75	0.25	0.2	262.4409127	1.6832587000000103
27	261.9886956	phase1	1		480	200.0	2.0	0.15	2.0	0.75	0.25	0.2	264.1241714	3.999837799999966
27	265.9885334	phase2	2		0	200.0	2.0	0.15	2.0	0.75	0.25	0.2	268.1240092	0.002073400000028869
27	265.9906068	phase3	3		360	200.0	2.0	0.15	2.0	0.75	0.25	0.2	268.1260826	2.997891100000004
27	266.9471556	response	3	right		200.0	2.0	0.15	2.0	0.75	0.25	0.2	269.08263139999997	
28	268.9884979	phase0	0		284	200.0	2.0	0.15	2.0	0.75	0.25	0.2	271.1239737	2.3665944999999624
28	271.3550924	phase1	1		480	200.0	2.0	0.15	2.0	0.75	0.25	0.2	273.4905682	3.9998917000000347
28	275.3549841	phase2	2		36	200.0	2.0	0.15	2.0	0.75	0.25	0.2	277.4904599	0.2999390999999605
28	275.6549232	phase3	3		360	200.0	2.0	0.15	2.0	0.75	0.25	0.2	277.790399	2.9999520000000075
28	276.8951209	response	3	right		200.0	2.0	0.15	2.0	0.75	0.25	0.2	279.0305967	
29	278.6548752	phase0	0		245	200.0	2.0	0.15	2.0	0.75	0.25	0.2	280.790351	2.04159820000001
29	280.6964734	phase1	1		480	200.0	2.0	0.15	2.0	0.75	0.25	0.2	282.8319492	3.9998438999999735
29	284.6963173	phase2	2		18	200.0	2.0	0.15	2.0	0.75	0.25	0.2	286.83179309999997	0.1500108000000182
29	284.8463281	phase3	3		360	200.0	2.0	0.15	2.0	0.75	0.25	0.2	286.9818039	2.999887000000001
29	286.1631836	response	3	left		200.0	2.0	0.15	2.0	0.75	0.25	0.2	288.2986594	
30	287.8462151	phase0	0		338	200.0	2.0	0.15	2.0	0.75	0.25	0.2	289.9816909	2.8165716999999972
30	290.6627868	phase1	1		480	200.0	2.0	0.15	2.0	0.75	0.25	0.2	292.7982626	3.9998898000000054
30	294.6626766	phase2	2		36	200.0	2.0	0.15	2.0	0.75	0.25	0.2	296.7981524	0.30002700000000004
30	294.9627036	phase3	3		360	200.0	2.0	0.15	2.0	0.75	0.25	0.2	297.0981794	2.999867199999983
30	296.3294856	response	3	right		200.0	2.0	0.15	2.0	0.75	0.25	0.2	298.4649614	
31	297.9625708	phase0	0		344	200.0	2.0	0.15	2.0	0.75	0.25	0.2	300.0980466	2.866564799999992
31	300.8291356	phase1	1		480	200.0	2.0	0.15	2.0	0.75	0.25	0.2	302.96461139999997	3.9998831000000337
31	304.8290187	phase2	2		12	200.0	2.0	0.15	2.0	0.75	0.25	0.2	306.9644945	0.10001709999994546
31	304.92903579999995	phase3	3		360	200.0	2.0	0.15	2.0	0.75	0.25	0.2	307.06451159999995	2.9998787000000675
31	306.5958802	response	3	right		200.0	2.0	0.15	2.0	0.75	0.25	0.2	308.731356	
32	307.9289145	phase0	0		301	200.0	2.0	0.15	2.0	0.75	0.25	0.2	310.0643903	2.508244300000001
32	310.4371588	phase1	1		480	200.0	2.0	0.15	2.0	0.75	0.25	0.2	312.5726346	3.999885699999936
32	314.43704449999996	phase2	2		30	200.0	2.0	0.15	2.0	0.75	0.25	0.2	316.57252029999995	0.24998809999999594
32	314.68703259999995	phase3	3		360	200.0	2.0	0.15	2.0	0.75	0.25	0.2	316.82250839999995	2.9999072000000524
32	315.8205908	response	3	left		200.0	2.0	0.15	2.0	0.75	0.25	0.2	317.9560666	
33	317.6869398	phase0	0		153	200.0	2.0	0.15	2.0	0.75	0.25	0.2	319.8224156	1.2749565000000302
33	318.96189630000003	phase1	1		480	200.0	2.0	0.15	2.0	0.75	0.25	0.2	321.09737210000003	3.9999004000000014
33	322.96179670000004	phase2	2		30	200.0	2.0	0.15	2.0	0.75	0.25	0.2	325.09727250000003	0.2499543999999787
33	323.2117511	phase3	3		360	200.0	2.0	0.15	2.0	0.75	0.25	0.2	325.3472269	2.9999619000000166
33	324.26022290000003	response	3	right		200.0	2.0	0.15	2.0	0.75	0.25	0.2	326.3956987	
34	326.21171300000003	phase0	0		316	200.0	2.0	0.15	2.0	0.75	0.25	0.2	328.3471888	2.6332311999999547
34	328.8449442	phase1	1		480	200.0	2.0	0.15	2.0	0.75	0.25	0.2	330.98042	3.9998709999999846
34	332.84481519999997	phase2	2		36	200.0	2.0	0.15	2.0	0.75	0.25	0.2	334.98029099999997	0.2999932999999828
34	333.14480849999995	phase3	3		360	200.0	2.0	0.15	2.0	0.75	0.25	0.2	335.28028429999995	2.999875700000075
34	334.85328489999995	response	3	right		200.0	2.0	0.15	2.0	0.75	0.25	0.2	336.98876069999994	
35	336.14468420000003	phase0	0		270	200.0	2.0	0.15	2.0	0.75	0.25	0.2	338.28016	2.249941100000001
35	338.39462530000003	phase1	1		480	200.0	2.0	0.15	2.0	0.75	0.25	0.2	340.5301011	3.999883699999941
35	342.39450899999997	phase2	2		18	200.0	2.0	0.15	2.0	0.75	0.25	0.2	344.52998479999997	0.14999840000007225
35	342.54450740000004	phase3	3		360	200.0	2.0	0.15	2.0	0.75	0.25	0.2	344.67998320000004	2.999931800000013
35	343.60306849999995	response	3	left		200.0	2.0	0.15	2.0	0.75	0.25	0.2	345.73854429999994	
36	345.54443920000006	phase0	0		244	200.0	2.0	0.15	2.0	0.75	0.25	0.2	347.67991500000005	2.0332244999999602
36	347.5776637	phase1	1		480	200.0	2.0	0.15	2.0	0.75	0.25	0.2	349.7131395	3.9998812000000044
36	350.31948420000003	response	1	right		200.0	2.0	0.15	2.0	0.75	0.25	0.2	352.45496	
36	351.5775449	phase2	2		0	200.0	2.0	0.15	2.0	0.75	0.25	0.2	353.7130207	0.0020965999999589258
36	351.5796415	phase3	3		360	200.0	2.0	0.15	2.0	0.75	0.25	0.2	353.7151173	2.9978398000000652
36	353.23603690000004	response	3	left		200.0	2.0	0.15	2.0	0.75	0.25	0.2	355.37151270000004	
37	354.57748130000004	phase0	0		174	200.0	2.0	0.15	2.0	0.75	0.25	0.2	356.71295710000004	1.448218499999939
37	356.0256998	phase1	1		480	200.0	2.0	0.15	2.0	0.75	0.25	0.2	358.1611756	4.001656600000047
37	360.02735640000003	phase2	2		6	200.0	2.0	0.15	2.0	0.75	0.25	0.2	362.1628322	0.04993679999995493
37	360.0772932	phase3	3		360	200.0	2.0	0.15	2.0	0.75	0.25	0.2	362.212769	2.9999715999999808
37	361.27748940000004	response	3	right		200.0	2.0	0.15	2.0	0.75	0.25	0.2	363.41296520000003	
38	363.07726479999997	phase0	0		207	200.0	2.0	0.15	2.0	0.75	0.25	0.2	365.21274059999996	1.7248577000000296
38	364.8021225	phase1	1		480	200.0	2.0	0.15	2.0	0.75	0.25	0.2	366.9375983	3.999908399999981
38	368.8020309	phase2	2		0	200.0	2.0	0.15	2.0	0.75	0.25	0.2	370.9375067	0.002327799999989111
38	368.80435869999997	phase3	3		359	200.0	2.0	0.15	2.0	0.75	0.25	0.2	370.93983449999996	2.9975782999999865
38	369.7022356	response	3	right		200.0	2.0	0.15	2.0	0.75	0.25	0.2	371.8377114	
39	371.80193699999995	phase0	0		203	200.0	2.0	0.15	2.0	0.75	0.25	0.2	373.93741279999995	1.6915413000000399
39	373.4934783	phase1	1		480	200.0	2.0	0.15	2.0	0.75	0.25	0.2	375.6289541	3.9999440999999933
39	377.4934224	phase2	2		12	200.0	2.0	0.15	2.0	0.75	0.25	0.2	379.6288982	0.09825769999997647
39	377.59168009999996	phase3	3		360	200.0	2.0	0.15	2.0	0.75	0.25	0.2	379.72715589999996	3.0016189000000395
39	379.1668902	response	3	right		200.0	2.0	0.15	2.0	0.75	0.25	0.2	381.302366	
40	380.593299	phase0	0		258	200.0	2.0	0.15	2.0	0.75	0.25	0.2	382.7287748	2.1499787999999853
40	382.7432778	phase1	1		480	200.0	2.0	0.15	2.0	0.75	0.25	0.2	384.8787536	3.9998484999999846
40	386.7431263	phase2	2		36	200.0	2.0	0.15	2.0	0.75	0.25	0.2	388.87860209999997	0.29996040000003177
40	387.0430867	phase3	3		360	200.0	2.0	0.15	2.0	0.75	0.25	0.2	389.1785625	2.99994479999998
40	388.4932939	response	3	right		200.0	2.0	0.15	2.0	0.75	0.25	0.2	390.6287697	
41	390.0430315	phase0	0		93	200.0	2.0	0.15	2.0	0.75	0.25	0.2	392.1785073	0.7732131000000209
41	390.8162446	phase1	1		60	200.0	2.0	0.15	2.0	0.75	0.25	0.2	392.9517204	0.5000092999999879
41	391.3162539	phase2	2		480	200.0	2.0	0.15	2.0	0.75	0.25	0.2	393.4517297	4.001580800000056
41	395.31783470000005	phase3	3		232	200.0	2.0	0.15	2.0	0.75	0.25	0.2	397.45331050000004	1.9316018999999187
