trial_nr	onset	event_type	phase	response	nr_frames	onset_abs	duration
1	0.9234424000005674	text_phase	0		22007	2.0281895000007353	183.43710389999978
1	184.3445827000005	response	0	space		185.44932980000067	
2	184.36054630000035	text_phase	0		417	185.46529340000052	3.474910500000078
2	187.81895240000085	response	0	space		188.92369950000102	
3	187.83545680000043	alternation	0		24	188.9402039000006	0.20004049999988638
3	188.03549730000032	alternation	1		24	189.14024440000048	0.1999353000001065
3	188.23543260000042	alternation	2		25	189.3401797000006	0.20835509999960777
3	188.44378770000003	alternation	3		23	189.5485348000002	0.1916134000002785
3	188.6354011000003	alternation	4		25	189.74014820000048	0.20832979999977397
3	188.84373090000008	alternation	5		23	189.94847800000025	0.19170910000048025
3	189.03544000000056	alternation	6		24	190.14018710000073	0.1999802999998792
3	189.23542030000044	alternation	7		25	190.3401674000006	0.20657810000011523
3	189.44199840000056	alternation	8		24	190.54674550000072	0.19998889999988023
3	189.64198730000044	alternation	9		24	190.7467344000006	0.19999929999994492
3	189.84198660000038	alternation	10		24	190.94673370000055	0.19999660000030417
3	190.0419832000007	alternation	11		24	191.14673030000085	0.19997969999985798
3	190.24196290000054	alternation	12		24	191.3467100000007	0.20000479999998788
3	190.44196770000053	alternation	13		24	191.5467148000007	0.19999519999964832
3	190.64196290000018	alternation	14		24	191.74671000000035	0.2000042999998186
3	190.8419672	alternation	15		24	191.94671430000017	0.1999838000001546
3	191.04195100000015	alternation	16		24	192.14669810000032	0.20175259999996342
3	191.24370360000012	alternation	17		24	192.34845070000028	0.19997000000057596
3	191.4436736000007	alternation	18		24	192.54842070000086	0.19998369999939314
3	191.6436573000001	alternation	19		24	192.74840440000025	0.2000480000006064
4	191.8437053000007	text_phase	0		451	192.94845240000086	3.7581580999994912
4	195.58544170000005	response	0	space		196.69018880000021	
5	195.60186340000018	alternation	0		25	196.70661050000035	0.20833930000026157
5	195.81020270000045	alternation	1		24	196.9149498000006	0.20000470000013593
5	196.01020740000058	alternation	2		24	197.11495450000075	0.2000129999996716
5	196.21022040000025	alternation	3		24	197.31496750000042	0.19996330000049056
5	196.41018370000074	alternation	4		24	197.5149308000009	0.20005769999988843
5	196.61024140000063	alternation	5		24	197.7149885000008	0.20000840000011522
5	196.81024980000075	alternation	6		24	197.91499690000092	0.199900699999489
5	197.01015050000024	alternation	7		24	198.1148976000004	0.2000052000003052
5	197.21015570000054	alternation	8		24	198.3149028000007	0.20002500000009604
5	197.41018070000064	alternation	9		24	198.5149278000008	0.19995579999977053
5	197.6101365000004	alternation	10		24	198.71488360000058	0.1999825000002602
5	197.81011900000067	alternation	11		24	198.91486610000084	0.20001769999998942
5	198.01013670000066	alternation	12		24	199.11488380000083	0.19997710000006919
5	198.21011380000073	alternation	13		24	199.3148609000009	0.19997960000000603
5	198.41009340000073	alternation	14		24	199.5148405000009	0.20001649999994697
5	198.61010990000068	alternation	15		24	199.71485700000085	0.2000313999997161
5	198.8101413000004	alternation	16		23	199.91488840000056	0.18948939999972936
5	198.99963070000013	alternation	17		25	200.1043778000003	0.2087160999999469
5	199.20834680000007	alternation	18		24	200.31309390000024	0.20000240000081249
5	199.40834920000088	alternation	19		24	200.51309630000105	0.1999960999992254
6	199.6083453000001	text_phase	0		709	200.71309240000028	5.909893700000794
6	205.50183480000032	response	0	space		206.6065819000005	
7	205.5182390000009	alternation	0		24	206.62298610000107	0.2000332999996317
7	205.71827230000054	alternation	1		25	206.8230194000007	0.2083145999995395
7	205.92658690000007	alternation	2		24	207.03133400000024	0.19995680000010907
7	206.12654370000018	alternation	3		23	207.23129080000035	0.19167340000058175
7	206.31821710000077	alternation	4		25	207.42296420000093	0.20823810000001686
7	206.52645520000078	alternation	5		24	207.63120230000095	0.20007089999944583
7	206.72652610000023	alternation	6		24	207.8312732000004	0.19999259999985952
7	206.9265187000001	alternation	7		24	208.03126580000026	0.19999650000045222
7	207.12651520000054	alternation	8		24	208.2312623000007	0.20003929999984393
7	207.32655450000038	alternation	9		24	208.43130160000055	0.19999009999992268
7	207.5265446000003	alternation	10		23	208.63129170000047	0.19161160000021482
7	207.71815620000052	alternation	11		25	208.8229033000007	0.20841079999991052
7	207.92656700000043	alternation	12		24	209.0313141000006	0.19991300000037882
7	208.1264800000008	alternation	13		24	209.23122710000098	0.19994279999991704
7	208.32642280000073	alternation	14		24	209.4311699000009	0.20005849999961356
7	208.52648130000034	alternation	15		24	209.6312284000005	0.19997150000017427
7	208.72645280000052	alternation	16		24	209.83119990000068	0.19999430000007123
7	208.9264471000006	alternation	17		24	210.03119420000075	0.19998329999998532
7	209.12643040000057	alternation	18		24	210.23117750000074	0.19999420000021928
7	209.3264246000008	alternation	19		24	210.43117170000096	0.20003240000005462
8	209.52645700000085	text_phase	0		297	210.631204100001	2.47491859999991
8	211.98487230000046	response	0	space		213.08961940000063	
9	212.00137560000076	alternation	0		25	213.10612270000092	0.20659100000011676
9	212.20796660000087	alternation	1		24	213.31271370000104	0.20001099999990402
9	212.40797760000078	alternation	2		24	213.51272470000094	0.1999605999999403
9	212.60793820000072	alternation	3		24	213.71268530000089	0.19999229999939416
9	212.8079305000001	alternation	4		24	213.91267760000028	0.19999370000005
9	213.00792420000016	alternation	5		24	214.11267130000033	0.19998540000051435
9	213.20790960000068	alternation	6		24	214.31265670000084	0.1999998000001142
9	213.4079094000008	alternation	7		24	214.51265650000096	0.20001229999979842
9	213.6079217000006	alternation	8		24	214.71266880000076	0.19999000000007072
9	213.80791170000066	alternation	9		24	214.91265880000083	0.20172610000008717
9	214.00963780000075	alternation	10		24	215.1143849000009	0.20000139999956446
9	214.2096392000003	alternation	11		23	215.31438630000048	0.1917180999998891
9	214.4013573000002	alternation	12		25	215.50610440000037	0.2082594000003155
9	214.60961670000052	alternation	13		24	215.71436380000068	0.2000175000002855
9	214.8096342000008	alternation	14		24	215.91438130000097	0.20003579999956855
9	215.00967000000037	alternation	15		24	216.11441710000054	0.19992150000052789
9	215.2095915000009	alternation	16		24	216.31433860000107	0.2000090999999884
9	215.40960060000089	alternation	17		24	216.51434770000105	0.19999859999916225
9	215.60959920000005	alternation	18		24	216.71434630000022	0.1999749000005977
9	215.80957410000065	alternation	19		24	216.9143212000008	0.1999895999997534
9	216.0095637000004	alternation	20		24	217.11431080000057	0.1999863999999434
9	216.20955010000034	alternation	21		24	217.3142972000005	0.20003230000020267
9	216.40958240000055	alternation	22		24	217.5143295000007	0.19998080000004848
9	216.6095632000006	alternation	23		24	217.71431030000076	0.19998109999960434
9	216.8095443000002	alternation	24		24	217.91429140000037	0.1997879999998986
9	217.0093323000001	alternation	25		24	218.11407940000026	0.20019090000005235
9	217.20952320000015	alternation	26		24	218.31427030000032	0.20000380000055884
9	217.4095270000007	alternation	27		24	218.51427410000088	0.1998579000000973
9	217.6093849000008	alternation	28		24	218.71413200000097	0.20000720000007277
9	217.80939210000088	alternation	29		23	218.91413920000105	0.191777799999727
9	218.0011699000006	alternation	30		25	219.10591700000077	0.20831730000008974
9	218.2094872000007	alternation	31		24	219.31423430000086	0.2000146999998833
9	218.40950190000058	alternation	32		24	219.51424900000075	0.19998409999971045
9	218.6094860000003	alternation	33		24	219.71423310000046	0.2000039000004108
9	218.8094899000007	alternation	34		24	219.91423700000087	0.19997650000004796
9	219.00946640000075	alternation	35		24	220.11421350000091	0.19826689999990776
9	219.20773330000065	alternation	36		24	220.31248040000082	0.1999961000001349
9	219.4077294000008	alternation	37		24	220.51247650000096	0.19997629999943456
9	219.60770570000022	alternation	38		24	220.7124528000004	0.20001540000066598
9	219.8077211000009	alternation	39		24	220.91246820000106	0.19997069999953965
10	220.00769180000043	text_phase	0		655	221.1124389000006	5.459926000000451
10	225.45120060000045	response	0	space		226.55594770000062	
11	225.46761780000088	alternation	0		25	226.57236490000105	0.20833049999964715
11	225.67594830000053	alternation	1		24	226.7806954000007	0.20001030000003084
11	225.87595860000056	alternation	2		24	226.98070570000073	0.19996770000034303
11	226.0759263000009	alternation	3		23	227.18067340000107	0.1916559999999663
11	226.26758230000087	alternation	4		25	227.37232940000104	0.2083284000000276
11	226.4759107000009	alternation	5		24	227.58065780000106	0.20000229999914154
11	226.67591300000004	alternation	6		24	227.7806601000002	0.19999150000057853
11	226.87590450000062	alternation	7		24	227.98065160000078	0.20002000000022235
11	227.07592450000084	alternation	8		24	228.180671600001	0.1999590999994325
11	227.27588360000027	alternation	9		24	228.38063070000044	0.2000223000004553
11	227.47590590000073	alternation	10		24	228.5806530000009	0.19997239999975136
11	227.67587830000048	alternation	11		24	228.78062540000064	0.19998930000019755
11	227.87586760000067	alternation	12		24	228.98061470000084	0.2000014999994164
11	228.0758691000001	alternation	13		24	229.18061620000026	0.19998110000051383
11	228.2758502000006	alternation	14		24	229.38059730000077	0.19999279999956343
11	228.47584300000017	alternation	15		24	229.58059010000034	0.19999030000053608
11	228.6758333000007	alternation	16		24	229.78058040000087	0.19998949999990145
11	228.8758228000006	alternation	17		24	229.98056990000077	0.20010499999989406
11	229.0759278000005	alternation	18		24	230.18067490000067	0.19989629999963654
11	229.27582410000014	alternation	19		24	230.3805712000003	0.20002079999994749
11	229.47584490000008	alternation	20		24	230.58059200000025	0.19996760000049107
11	229.67581250000057	alternation	21		24	230.78055960000074	0.1999948000002405
11	229.87580730000082	alternation	22		24	230.98055440000098	0.2000579999994443
11	230.07586530000026	alternation	23		24	231.18061240000043	0.199965599999814
11	230.27583090000007	alternation	24		24	231.38057800000024	0.19823400000041147
11	230.47406490000049	alternation	25		24	231.57881200000065	0.19998020000002725
11	230.6740451000005	alternation	26		24	231.77879220000068	0.19999920000009297
11	230.8740443000006	alternation	27		24	231.97879140000077	0.20000720000007277
11	231.07405150000068	alternation	28		24	232.17879860000085	0.20000549999986106
11	231.27405700000054	alternation	29		24	232.3788041000007	0.20000999999956548
11	231.4740670000001	alternation	30		24	232.57881410000027	0.19996960000025865
11	231.67403660000036	alternation	31		24	232.77878370000053	0.19980759999998554
11	231.87384420000035	alternation	32		24	232.97859130000052	0.20019200000024284
11	232.0740362000006	alternation	33		24	233.17878330000076	0.20171320000008564
11	232.27574940000068	alternation	34		24	233.38049650000085	0.20006479999938165
11	232.47581420000006	alternation	35		24	233.58056130000023	0.1999340000002121
11	232.67574820000027	alternation	36		24	233.78049530000044	0.1999669000006179
11	232.8757151000009	alternation	37		24	233.98046220000106	0.2000027999993108
11	233.0757179000002	alternation	38		24	234.18046500000037	0.20002670000030776
11	233.2757446000005	alternation	39		24	234.38049170000068	0.19994279999991704
12	233.47568740000042	text_phase	0		476	234.5804345000006	3.966540999999779
12	237.4257957000009	response	0	space		238.53054280000106	
13	237.4422284000002	alternation	0		25	238.54697550000037	0.2083399000002828
13	237.6505683000005	alternation	1		24	238.75531540000065	0.19998450000002777
13	237.85055280000051	alternation	2		24	238.95529990000068	0.19999879999977566
13	238.0505516000003	alternation	3		24	239.15529870000046	0.2000373999999283
13	238.25058900000022	alternation	4		24	239.3553361000004	0.19994990000031976
13	238.45053890000054	alternation	5		24	239.5552860000007	0.20001630000024306
13	238.65055520000078	alternation	6		24	239.75530230000095	0.199960199999623
13	238.8505154000004	alternation	7		24	239.95526250000057	0.20002829999975802
13	239.05054370000016	alternation	8		24	240.15529080000033	0.1999825000002602
13	239.25052620000042	alternation	9		24	240.3552733000006	0.19997679999960383
13	239.45050300000003	alternation	10		24	240.5552501000002	0.20003510000060487
13	239.65053810000063	alternation	11		24	240.7552852000008	0.19991589999972348
13	239.85045400000035	alternation	12		24	240.95520110000052	0.20005700000001525
13	240.05051100000037	alternation	13		24	241.15525810000054	0.1999671000003218
13	240.2504781000007	alternation	14		24	241.35522520000086	0.19998200000009092
13	240.45046010000078	alternation	15		24	241.55520720000095	0.2000090999999884
13	240.65046920000077	alternation	16		24	241.75521630000094	0.198307499999828
13	240.8487767000006	alternation	17		24	241.95352380000077	0.1999558999996225
13	241.04873260000022	alternation	18		24	242.1534797000004	0.19997220000004745
13	241.24870480000027	alternation	19		24	242.35345190000044	0.20002730000032898
13	241.4487321000006	alternation	20		24	242.55347920000077	0.19997779999994236
13	241.64870990000054	alternation	21		24	242.7534570000007	0.1998236999997971
13	241.84853360000034	alternation	22		24	242.9532807000005	0.20015760000023874
13	242.04869120000058	alternation	23		24	243.15343830000074	0.19999189999998634
13	242.24868310000056	alternation	24		24	243.35343020000073	0.19999559999996563
13	242.44867870000053	alternation	25		24	243.5534258000007	0.2018343999998251
13	242.65051310000035	alternation	26		24	243.75526020000052	0.1999311999998099
13	242.85044430000016	alternation	27		24	243.95519140000033	0.19995970000036323
13	243.05040400000053	alternation	28		24	244.1551511000007	0.19999790000019857
13	243.25040190000072	alternation	29		24	244.3551490000009	0.1999844000001758
13	243.4503863000009	alternation	30		24	244.55513340000107	0.20002729999941948
13	243.65041360000032	alternation	31		24	244.7551607000005	0.19998649999979534
13	243.85040010000012	alternation	32		24	244.95514720000028	0.19997760000023845
13	244.05037770000035	alternation	33		24	245.15512480000052	0.1999876999998378
13	244.2503654000002	alternation	34		24	245.35511250000036	0.1999985000002198
13	244.4503639000004	alternation	35		24	245.55511100000058	0.2000062999995862
13	244.6503702	alternation	36		24	245.75511730000017	0.1999831000002814
13	244.85035330000028	alternation	37		24	245.95510040000045	0.20001909999973577
13	245.05037240000001	alternation	38		24	246.15511950000018	0.19995470000048954
13	245.2503271000005	alternation	39		24	246.35507420000067	0.19997839999996359
14	245.45030550000047	text_phase	0		337	246.55505260000064	2.808264700000109
14	248.2421006000004	response	0	space		249.34684770000058	
15	248.25857020000058	alternation	0		25	249.36331730000074	0.20830899999964458
15	248.46687920000022	alternation	1		23	249.5716263000004	0.19165930000053777
15	248.65853850000076	alternation	2		25	249.76328560000093	0.2083372999995845
15	248.86687580000034	alternation	3		24	249.9716229000005	0.19998200000009092
15	249.06685780000043	alternation	4		24	250.1716049000006	0.19999430000007123
15	249.2668521000005	alternation	5		24	250.37159920000067	0.20000619999973424
15	249.46685830000024	alternation	6		24	250.5716054000004	0.19997969999985798
15	249.6668380000001	alternation	7		24	250.77158510000027	0.19827900000018417
15	249.86511700000028	alternation	8		24	250.96986410000045	0.20000640000034764
15	250.06512340000063	alternation	9		24	251.1698705000008	0.19999129999996512
15	250.2651147000006	alternation	10		24	251.36986180000076	0.20001489999958721
15	250.46512960000018	alternation	11		24	251.56987670000035	0.1999562999999398
15	250.66508590000012	alternation	12		24	251.7698330000003	0.20002610000028653
15	250.8651120000004	alternation	13		24	251.96985910000058	0.20000059999983932
15	251.06511260000025	alternation	14		24	252.16985970000042	0.1999578000004476
15	251.2650704000007	alternation	15		24	252.36981750000086	0.19999909999933152
15	251.46506950000003	alternation	16		24	252.5698166000002	0.20173520000025746
15	251.66680470000028	alternation	17		24	252.77155180000045	0.20003530000030878
15	251.8668400000006	alternation	18		24	252.97158710000076	0.19994709999991755
15	252.0667871000005	alternation	19		24	253.17153420000068	0.20001899999988382
15	252.2668061000004	alternation	20		24	253.37155320000056	0.199982899999668
15	252.46678900000006	alternation	21		24	253.57153610000023	0.19997690000036528
15	252.66676590000043	alternation	22		24	253.7715130000006	0.20000170000002981
15	252.86676760000046	alternation	23		24	253.97151470000063	0.19998839999971096
15	253.06675600000017	alternation	24		24	254.17150310000034	0.19999370000005
15	253.26674970000022	alternation	25		6	254.3714968000004	0.04998780000005354
15	253.3003105000007	response	25	space		254.40505760000087	
16	253.31673750000027	text_phase	0		899	254.42148460000044	7.4909793000006175
16	260.7918146000002	response	0	space		261.89656170000035	
17	260.8077168000009	alternation	0		25	261.91246390000106	0.2087967999996181
17	261.0165136000005	alternation	1		24	262.1212607000007	0.19996910000008938
17	261.2164827000006	alternation	2		24	262.32122980000076	0.19827689999965514
17	261.41475960000025	alternation	3		24	262.5195067000004	0.20000160000017786
17	261.61476120000043	alternation	4		24	262.7195083000006	0.1999831000002814
17	261.8147443000007	alternation	5		24	262.9194914000009	0.20003649999944173
17	262.01478080000015	alternation	6		24	263.1195279000003	0.19995860000017274
17	262.2147394000003	alternation	7		24	263.3194865000005	0.19998469999973167
17	262.41472410000006	alternation	8		24	263.5194712000002	0.19999000000007072
17	262.6147141000001	alternation	9		24	263.7194612000003	0.2000056000006225
17	262.81471970000075	alternation	10		24	263.9194668000009	0.20001830000001064
17	263.01473800000076	alternation	11		24	264.11948510000093	0.20170499999949243
17	263.21644300000025	alternation	12		24	264.3211901000004	0.2000069000005169
17	263.41644990000077	alternation	13		24	264.52119700000094	0.20000029999937396
17	263.61645020000014	alternation	14		24	264.7211973000003	0.2000318000000334
17	263.8164820000002	alternation	15		24	264.92122910000035	0.19992110000021057
17	264.0164031000004	alternation	16		24	265.12115020000056	0.2000229000004765
17	264.21642600000087	alternation	17		24	265.32117310000103	0.19829939999999624
17	264.41472540000086	alternation	18		24	265.51947250000103	0.19991899999968155
17	264.61464440000054	alternation	19		24	265.7193915000007	0.1999998000001142
17	264.81464420000066	alternation	20		24	265.9193913000008	0.20002089999979944
17	265.01466510000046	alternation	21		24	266.1194122000006	0.19997020000027987
17	265.21463530000074	alternation	22		24	266.3193824000009	0.20001619999948161
17	265.4146515000002	alternation	23		24	266.5193986000004	0.19997550000061892
17	265.61462700000084	alternation	24		13	266.719374100001	0.10832359999949404
17	265.7065792000003	response	24	space		266.8113263000005	
18	265.72295060000033	alternation	0		25	266.8276977000005	0.20840320000024803
18	265.9313538000006	alternation	1		24	267.03610090000075	0.1994899000001169
18	266.1308437000007	alternation	2		23	267.23559080000086	0.19382859999950597
18	266.3246723000002	alternation	3		24	267.42941940000037	0.2000993000001472
18	266.52477160000035	alternation	4		24	267.6295187000005	0.19989040000018576
18	266.72466200000054	alternation	5		24	267.8294091000007	0.19998740000028192
18	266.9246494000008	alternation	6		24	268.029396500001	0.19998209999994288
18	267.12463150000076	alternation	7		25	268.2293786000009	0.20666789999995672
18	267.3312994000007	alternation	8		24	268.4360465000009	0.1999390000000858
18	267.5312384000008	alternation	9		24	268.63598550000097	0.19998219999979483
18	267.7312206000006	alternation	10		24	268.83596770000077	0.20003120000001218
18	267.9312518000006	alternation	11		24	269.0359989000008	0.20002289999956702
18	268.1312747000002	alternation	12		24	269.23602180000034	0.1998466000004555
18	268.33112130000063	alternation	13		24	269.4358684000008	0.2001630999993722
18	268.5312844	alternation	14		24	269.6360315000002	0.19993870000052993
18	268.73122310000053	alternation	15		24	269.8359702000007	0.1999921999995422
18	268.9312153000001	alternation	16		23	270.03596240000024	0.19341500000064116
18	269.1246303000007	alternation	17		24	270.2293774000009	0.2000399999997171
18	269.32467030000043	alternation	18		24	270.4294174000006	0.19990409999991243
18	269.52457440000035	alternation	19		24	270.6293215000005	0.20005209999999352
18	269.72462650000034	alternation	20		24	270.8293736000005	0.19992679999995744
18	269.9245533000003	alternation	21		25	271.02930040000047	0.20659650000015972
18	270.13114980000046	alternation	22		24	271.2358969000006	0.19998870000017632
18	270.33113850000063	alternation	23		24	271.4358856000008	0.1999945999996271
18	270.53113310000026	alternation	24		24	271.63588020000043	0.19999689999986003
18	270.7311300000001	alternation	25		20	271.8358771000003	0.1666631000007328
18	270.8813325000001	response	25	space		271.98607960000027	
19	270.89779310000085	alternation	0		25	272.002540200001	0.20832589999918127
19	271.10611900000004	alternation	1		24	272.2108661000002	0.20000049999998737
19	271.3061195	alternation	2		24	272.4108666000002	0.19998620000023948
19	271.50610570000026	alternation	3		23	272.61085280000043	0.1916929999997592
19	271.6977987	alternation	4		24	272.8025458000002	0.20171280000067782
19	271.8995115000007	alternation	5		24	273.00425860000087	0.19998320000013337
19	272.09949470000083	alternation	6		24	273.204241800001	0.19998719999966852
19	272.2994819000005	alternation	7		24	273.40422900000067	0.200124599999981
19	272.4996065000005	alternation	8		24	273.60435360000065	0.1999009000001024
19	272.6995074000006	alternation	9		24	273.80425450000075	0.1999433000000863
19	272.89945070000067	alternation	10		25	274.00419780000084	0.20659969999996974
19	273.10605040000064	alternation	11		24	274.2107975000008	0.2000676999996358
19	273.3061181000003	alternation	12		24	274.41086520000044	0.2000065000001996
19	273.5061246000005	alternation	13		24	274.61087170000064	0.19990659999984928
19	273.7060312000003	alternation	14		24	274.8107783000005	0.20004100000005565
19	273.9060722000004	alternation	15		24	275.01081930000055	0.19998800000030315
19	274.1060602000007	alternation	16		24	275.21080730000085	0.2000313999997161
19	274.3060916000004	alternation	17		24	275.41083870000057	0.19991719999961788
19	274.5060088	alternation	18		24	275.6107559000002	0.19999670000015612
19	274.7060055000002	alternation	19		23	275.81075260000034	0.19340629999987868
19	274.89941180000005	alternation	20		24	276.0041589000002	0.19998460000078921
19	275.09939640000084	alternation	21		24	276.204143500001	0.20000099999924714
19	275.2993974000001	alternation	22		24	276.40414450000026	0.20000530000015715
19	275.49940270000025	alternation	23		24	276.6041498000004	0.19999319999988074
19	275.6993959000001	alternation	24		24	276.8041430000003	0.1999933000006422
19	275.89938920000077	alternation	25		25	277.00413630000094	0.2065865999993548
19	276.1059758000001	alternation	26		24	277.2107229000003	0.19997870000042894
19	276.30595450000055	alternation	27		24	277.4107016000007	0.19999660000030417
19	276.50595110000086	alternation	28		24	277.610698200001	0.20003949999954784
19	276.7059906000004	alternation	29		24	277.8107377000006	0.1999404999996841
19	276.9059311000001	alternation	30		20	278.01067820000026	0.16666260000056354
19	277.0563860000002	response	30	space		278.16113310000037	
20	277.07259370000065	alternation	0		25	278.1773408000008	0.20833570000013424
20	277.2809294000008	alternation	1		24	278.38567650000095	0.19998429999941436
20	277.4809137000002	alternation	2		24	278.58566080000037	0.1999989000005371
20	277.68091260000074	alternation	3		24	278.7856597000009	0.20173179999983404
20	277.8826444000006	alternation	4		23	278.98739150000074	0.19135189999997237
20	278.07399630000054	alternation	5		24	279.1787434000007	0.20034320000013395
20	278.2743395000007	alternation	6		24	279.37908660000085	0.1999203999994279
20	278.4742599000001	alternation	7		24	279.5790070000003	0.20005260000016278
20	278.67431250000027	alternation	8		24	279.77905960000044	0.19998279999981605
20	278.8742953000001	alternation	9		25	279.97904240000025	0.2066279000000577
20	279.08092320000014	alternation	10		24	280.1856703000003	0.1998053000006621
20	279.2807285000008	alternation	11		24	280.385475600001	0.20013990000006743
20	279.4808684000009	alternation	12		24	280.58561550000104	0.20000619999973424
20	279.6808746000006	alternation	13		24	280.7856217000008	0.20006889999967825
20	279.8809435000003	alternation	14		24	280.98569060000045	0.19990729999972245
20	280.0808508	alternation	15		24	281.1855979000002	0.1999948000002405
20	280.28084560000025	alternation	16		24	281.3855927000004	0.19999139999981708
20	280.48083700000007	alternation	17		24	281.58558410000023	0.19999040000038804
20	280.68082740000045	alternation	18		23	281.7855745000006	0.1933945999999196
20	280.8742220000004	alternation	19		24	281.97896910000054	0.20002329999988433
20	281.07424530000026	alternation	20		24	282.1789924000004	0.20000530000015715
20	281.2742506000004	alternation	21		24	282.3789977000006	0.19994969999970635
20	281.4742003000001	alternation	22		24	282.5789474000003	0.19999100000040926
20	281.67419130000053	alternation	23		25	282.7789384000007	0.20662699999957113
20	281.8808183000001	alternation	24		24	282.98556540000027	0.19999770000049466
20	282.0808160000006	alternation	25		24	283.18556310000076	0.1999445999999807
20	282.2807606000006	alternation	26		23	283.38550770000074	0.19167560000005324
20	282.4643592000002	response	26	space		283.5691063000004	
20	282.47243620000063	alternation	27		1	283.5771833000008	0.008330799999384908
21	282.480767	alternation	0		25	283.5855141000002	0.20832590000009077
21	282.6890929000001	alternation	1		24	283.7938400000003	0.19999189999998634
21	282.8890848000001	alternation	2		24	283.99383190000026	0.20005380000020523
21	283.0891386000003	alternation	3		24	284.19388570000046	0.1999324999997043
21	283.2890711	alternation	4		24	284.39381820000017	0.2000322000003507
21	283.48910330000035	alternation	5		23	284.5938504000005	0.1934529999998631
21	283.6825563000002	alternation	6		24	284.7873034000004	0.19996390000051179
21	283.8825202000007	alternation	7		24	284.9872673000009	0.1999644999996235
21	284.08248470000035	alternation	8		24	285.1872318000005	0.19995190000008733
21	284.28243660000044	alternation	9		24	285.3871837000006	0.20005459999993036
21	284.48249120000037	alternation	10		24	285.58723830000054	0.1999618999998347
21	284.6824531000002	alternation	11		25	285.78720020000037	0.2065736000004108
21	284.8890267000006	alternation	12		24	285.9937738000008	0.20001140000022133
21	285.08903810000083	alternation	13		24	286.193785200001	0.2000198999994609
21	285.2890580000003	alternation	14		24	286.39380510000046	0.19996640000044863
21	285.48902440000074	alternation	15		24	286.5937715000009	0.20000739999977668
21	285.6890318000005	alternation	16		24	286.7937789000007	0.19997520000015356
21	285.8890070000007	alternation	17		24	286.99375410000084	0.2000092999996923
21	286.08901630000037	alternation	18		24	287.19376340000053	0.19996509999964474
21	286.2889814	alternation	19		24	287.3937285000002	0.19999800000005052
21	286.48897940000006	alternation	20		23	287.59372650000023	0.19340960000045015
21	286.6823890000005	alternation	21		24	287.7871361000007	0.20006959999955143
21	286.88245860000006	alternation	22		16	287.98720570000023	0.13326860000051965
21	286.9932436000008	response	22	space		288.097990700001	
22	287.0157272000006	alternation	0		25	288.12047430000075	0.20825299999978597
22	287.22398020000037	alternation	1		24	288.32872730000054	0.20003470000028756
22	287.42401490000066	alternation	2		24	288.5287620000008	0.19833990000006452
22	287.6223548000007	alternation	3		24	288.7271019000009	0.1999391999997897
22	287.8222940000005	alternation	4		24	288.9270411000007	0.19996890000038547
22	288.0222629000009	alternation	5		24	289.12701000000106	0.19999559999996563
22	288.22225850000086	alternation	6		24	289.32700560000103	0.19997559999956138
22	288.4222341000004	alternation	7		24	289.5269812000006	0.20001279999996768
22	288.6222469000004	alternation	8		24	289.72699400000056	0.20002320000003238
22	288.8222701000004	alternation	9		24	289.9270172000006	0.2000238000000536
22	289.0222939000005	alternation	10		24	290.12704100000064	0.19997390000025916
22	289.22226780000074	alternation	11		24	290.3270149000009	0.20174090000000433
22	289.42400870000074	alternation	12		24	290.5287558000009	0.20005399999990914
22	289.62406270000065	alternation	13		24	290.7288098000008	0.1998740999997608
22	289.8239368000004	alternation	14		24	290.9286839000006	0.20013790000029985
22	290.0240747000007	alternation	15		24	291.1288218000009	0.19991659999959666
22	290.2239913000003	alternation	16		24	291.3287384000005	0.19769360000009328
22	290.4216849000004	alternation	17		24	291.52643200000057	0.20053490000009333
22	290.6222198000005	alternation	18		24	291.72696690000066	0.19994899999983318
22	290.8221688000003	alternation	19		24	291.9269159000005	0.1999961000001349
22	291.02216490000046	alternation	20		24	292.12691200000063	0.20002600000043458
22	291.2221909000009	alternation	21		24	292.32693800000106	0.19996099999934813
22	291.42215190000024	alternation	22		24	292.5268990000004	0.20004280000011931
22	291.62219470000036	alternation	23		24	292.72694180000053	0.19982330000038928
22	291.82201800000075	alternation	24		21	292.9267651000009	0.17511449999983597
22	291.9806993000002	response	24	space		293.08544640000036	
23	291.9971325000006	alternation	0		25	293.10187960000076	0.20834689999992406
23	292.2054794000005	alternation	1		23	293.3102265000007	0.19339099999979226
23	292.3988704000003	alternation	2		24	293.5036175000005	0.19998600000053557
23	292.59885640000084	alternation	3		24	293.703603500001	0.20006869999997434
23	292.7989251000008	alternation	4		24	293.903672200001	0.19994489999953657
23	292.99887000000035	alternation	5		24	294.1036171000005	0.19998339999983727
23	293.1988534000002	alternation	6		25	294.30360050000036	0.20657280000068567
23	293.4054262000009	alternation	7		23	294.51017330000104	0.19169409999994969
23	293.5971203000008	alternation	8		25	294.701867400001	0.20831169999928534
23	293.8054320000001	alternation	9		24	294.9101791000003	0.19997390000025916
23	294.00540590000037	alternation	10		24	295.11015300000054	0.20001700000011624
23	294.2054229000005	alternation	11		24	295.31017000000065	0.1999863999999434
23	294.40540930000043	alternation	12		24	295.5101564000006	0.19997330000023794
23	294.60538260000067	alternation	13		24	295.71012970000083	0.20003519999954733
23	294.8054178000002	alternation	14		24	295.9101649000004	0.19999400000051537
23	295.00541180000073	alternation	15		23	296.1101589000009	0.19339140000010957
23	295.19880320000084	alternation	16		24	296.303550300001	0.19997609999973065
23	295.39877930000057	alternation	17		24	296.50352640000074	0.19998459999987972
23	295.59876390000045	alternation	18		24	296.7035110000006	0.19998329999998532
23	295.79874720000043	alternation	19		24	296.9034943000006	0.20003689999975904
23	295.9987841000002	alternation	20		25	297.10353120000036	0.20659800000066753
23	296.20538210000086	alternation	21		24	297.31012920000103	0.19995079999989684
23	296.40533290000076	alternation	22		24	297.5100800000009	0.1999932999997327
23	296.6053262000005	alternation	23		24	297.71007330000066	0.19999670000015612
23	296.80532290000065	alternation	24		24	297.9100700000008	0.20000569999956497
23	297.0053286000002	alternation	25		24	298.1100757000004	0.2000281000000541
23	297.20535670000027	alternation	26		24	298.31010380000043	0.19995600000038394
23	297.40531270000065	alternation	27		24	298.5100598000008	0.20005089999995107
23	297.6053636000006	alternation	28		19	298.71011070000077	0.15825829999994312
23	297.7412787000003	response	28	space		298.84602580000046	
24	297.76362190000054	alternation	0		24	298.8683690000007	0.20173700000032113
24	297.96535890000087	alternation	1		24	299.07010600000103	0.19999019999977463
24	298.16534910000064	alternation	2		24	299.2700962000008	0.1999961000001349
24	298.3653452000008	alternation	3		24	299.47009230000094	0.20001609999962966
24	298.5653613000004	alternation	4		24	299.6701084000006	0.19995550000021467
24	298.7653168000006	alternation	5		25	299.8700639000008	0.2066077999998015
24	298.9719246000004	alternation	6		24	300.0766717000006	0.20002409999960946
24	299.17194870000003	alternation	7		24	300.2766958000002	0.1999697000001106
24	299.37191840000014	alternation	8		24	300.4766655000003	0.2000000000007276
24	299.57191840000087	alternation	9		24	300.67666550000104	0.20001460000003135
24	299.7719330000009	alternation	10		24	300.87668010000107	0.20000879999952303
24	299.9719418000004	alternation	11		24	301.0766889000006	0.19993969999995898
24	300.1718815000004	alternation	12		24	301.27662860000055	0.19998860000032437
24	300.3718701000007	alternation	13		24	301.4766172000009	0.2000263999998424
24	300.57189650000055	alternation	14		23	301.6766436000007	0.1933816000000661
24	300.7652781000006	alternation	15		24	301.8700252000008	0.19998759999998583
24	300.9652657000006	alternation	16		24	302.07001280000077	0.1999433000000863
24	301.1652090000007	alternation	17		24	302.26995610000085	0.2000686000001224
24	301.3652776000008	alternation	18		18	302.470024700001	0.20000049999998737
24	301.5652781000008	alternation	19		24	302.67002520000096	0.19964029999937338
24	301.76491840000017	alternation	20		24	302.86966550000034	0.1979271999998673
24	301.96284560000004	alternation	21		25	303.0675927000002	0.20897570000033738
24	302.1718213000004	alternation	22		12	303.27656840000054	67.7493013000003
24	302.25548420000086	response	22	space		303.36023130000103	
25	369.9211226000007	text_phase	0		8162	371.02586970000084	68.01489270000002
25	437.9195778000003	response	0	space		439.02432490000047	
26	437.9360153000007	text_phase	0		291	439.04076240000086	2.4332722999997713
26	440.3444629000005	response	0	space		441.4492100000007	
27	440.36928760000046	alternation	0		23	441.47403470000063	0.19166750000022148
27	440.5609551000007	alternation	1		24	441.66570220000085	0.1999722999998994
27	440.7609274000006	alternation	2		25	441.86567450000075	0.20836719999988418
27	440.96929460000047	alternation	3		24	442.07404170000063	0.20003650000035123
27	441.1693311000008	alternation	4		23	442.274078200001	0.1915553999997428
27	441.36088650000056	alternation	5		25	442.46563360000073	0.20662949999950797
27	441.56751600000007	alternation	6		24	442.67226310000024	0.20001310000043304
27	441.7675291000005	alternation	7		24	442.87227620000067	0.19995689999996102
27	441.96748600000046	alternation	8		24	443.07223310000063	0.20002910000039265
27	442.16751510000086	alternation	9		24	443.272262200001	0.1999932999997327
27	442.3675084000006	alternation	10		24	443.47225550000076	0.20001179999962915
27	442.5675202000002	alternation	11		24	443.6722673000004	0.19994130000031873
27	442.76746150000054	alternation	12		24	443.8722086000007	0.19998779999968974
27	442.9674493000002	alternation	13		24	444.0721964000004	0.20002240000030724
27	443.16747170000053	alternation	14		24	444.2722188000007	0.20172439999987546
27	443.3691961000004	alternation	15		24	444.4739432000006	0.20003770000039367
27	443.5692338000008	alternation	16		24	444.67398090000097	0.1999932999997327
27	443.76922710000053	alternation	17		24	444.8739742000007	0.1999734000000899
27	443.9692005000006	alternation	18		24	445.0739476000008	0.19998739999937243
27	444.1691879	alternation	19		24	445.27393500000017	0.1999126000000615
28	444.36910050000006	text_phase	0		621	445.4738476000002	5.174906900000678
28	449.5276354000007	response	0	space		450.63238250000086	
29	449.54400740000074	text_phase	0		517	450.6487545000009	4.30816059999961
29	453.8357295000005	response	0	space		454.9404766000007	
30	453.85216800000035	text_phase	0		514	454.9569151000005	4.283211400000255
30	458.11892350000016	response	0	space		459.22367060000033	
31	458.1353794000006	text_phase	0		399	459.24012650000077	3.3249109999997017
31	461.4438622000007	response	0	space		462.54860930000086	
32	461.4602904000003	alternation	0		25	462.56503750000047	0.2065867999999682
32	461.6668772000003	alternation	1		24	462.77162430000044	0.2000292000002446
32	461.8669064000005	alternation	2		24	462.9716535000007	0.2000118999994811
32	462.0669183	alternation	3		24	463.17166540000017	0.19997520000015356
32	462.26689350000015	alternation	4		24	463.3716406000003	0.19995360000029905
32	462.46684710000045	alternation	5		24	463.5715942000006	0.20003759999963222
32	462.6668847000001	alternation	6		24	463.77163180000025	0.1999615000004269
32	462.8668462000005	alternation	7		24	463.9715933000007	0.20002260000001115
32	463.0668688000005	alternation	8		24	464.1716159000007	0.19995769999968616
32	463.2668265000002	alternation	9		24	464.3715736000004	0.20174620000034338
32	463.46857270000055	alternation	10		24	464.5733198000007	0.19995539999945322
32	463.6685281	alternation	11		24	464.77327520000017	0.20002610000028653
32	463.8685542000003	alternation	12		24	464.97330130000046	0.19998910000049364
32	464.0685433000008	alternation	13		24	465.17329040000095	0.1999865999996473
32	464.26852990000043	alternation	14		24	465.3732770000006	0.1982693999998446
32	464.4667993000003	alternation	15		24	465.57154640000044	0.20002329999988433
32	464.66682260000016	alternation	16		24	465.7715697000003	0.19997659999989992
32	464.86679920000006	alternation	17		24	465.9715463000002	0.20001940000020113
32	465.06681860000026	alternation	18		24	466.17156570000043	0.1999498000004678
32	465.26676840000073	alternation	19		24	466.3715155000009	0.19998969999960536
33	465.46675810000033	text_phase	0		310	466.5715052000005	2.5850123999998686
33	468.03531310000017	response	0	space		469.14006020000033	
34	468.0517705000002	alternation	0		24	469.15651760000037	0.1999405000005936
34	468.2517110000008	alternation	1		25	469.35645810000096	0.20840129999942292
34	468.4601123000002	alternation	2		24	469.5648594000004	0.19995190000008733
34	468.6600642000003	alternation	3		24	469.7648113000005	0.19997700000021723
34	468.8600412000005	alternation	4		23	469.9647883000007	0.19136890000027051
34	469.0514101000008	alternation	5		25	470.15615720000096	0.20689619999939168
34	469.2583063000002	alternation	6		24	470.36305340000035	0.20000960000015766
34	469.45831590000034	alternation	7		24	470.5630630000005	0.20002279999971506
34	469.65833870000006	alternation	8		24	470.7630858000002	0.19995160000053147
34	469.8582903000006	alternation	9		24	470.96303740000076	0.19999189999998634
34	470.0582822000006	alternation	10		24	471.16302930000074	0.2000118999994811
34	470.25829410000006	alternation	11		24	471.3630412000002	0.19998890000078973
34	470.45828300000085	alternation	12		24	471.563030100001	0.20002129999920726
34	470.65830430000005	alternation	13		24	471.7630514000002	0.2016978999999992
34	470.86000220000005	alternation	14		24	471.9647493000002	0.2000082000004113
34	471.06001040000046	alternation	15		24	472.16475750000063	0.19999170000028244
34	471.26000210000075	alternation	16		24	472.3647492000009	0.19964410000011412
34	471.45964620000086	alternation	17		24	472.56439330000103	0.20011849999991682
34	471.6597647000008	alternation	18		24	472.76451180000095	0.20021749999978056
34	471.85998220000056	alternation	19		24	472.9647293000007	0.1999962999998388
35	472.0599785000004	text_phase	0		278	473.16472560000057	2.31659209999998
35	474.36016760000075	response	0	space		475.4649147000009	
36	474.3765706000004	text_phase	0		604	475.48131770000055	5.033167499999763
36	479.39326560000063	response	0	space		480.4980127000008	
37	479.40973810000014	alternation	0		25	480.5144852000003	0.20831929999985732
37	479.6180574	alternation	1		24	480.72280450000017	0.19999390000066342
37	479.81805130000066	alternation	2		24	480.92279840000083	0.1999867999993512
37	480.0180381	alternation	3		24	481.1227852000002	0.19999660000030417
37	480.2180347000003	alternation	4		24	481.3227818000005	0.19999230000030366
37	480.4180270000006	alternation	5		24	481.5227741000008	0.19826240000020334
37	480.6162894000008	alternation	6		24	481.721036500001	0.2000289999996312
37	480.81631840000045	alternation	7		24	481.9210655000006	0.19995860000017274
37	481.0162770000006	alternation	8		24	482.1210241000008	0.19999039999947854
37	481.2162674000001	alternation	9		24	482.3210145000003	0.2000373999999283
37	481.41630480000003	alternation	10		24	482.5210519000002	0.19998770000074728
37	481.6162925000008	alternation	11		24	482.72103960000095	0.19996110000010958
37	481.8162536000009	alternation	12		24	482.92100070000106	0.20000099999924714
37	482.01625460000014	alternation	13		24	483.1210017000003	0.20003110000016022
37	482.2162857000003	alternation	14		24	483.32103280000047	0.2017065999998522
37	482.41799230000015	alternation	15		24	483.5227394000003	0.19997280000006867
37	482.6179651000002	alternation	16		24	483.7227122000004	0.1999918000001344
37	482.81795690000035	alternation	17		24	483.9227040000005	0.19998820000000705
37	483.01794510000036	alternation	18		24	484.12269220000053	0.20002740000018093
37	483.21797250000054	alternation	19		24	484.3227196000007	0.19995079999989684
38	483.41792330000044	text_phase	0		632	484.5226704000006	5.266526999999769
38	488.6679729000007	response	0	space		489.77272000000085	
39	488.6844503000002	alternation	0		24	489.7891974000004	0.20001289999981964
39	488.8844632	alternation	1		25	489.9892103000002	0.20836900000085734
39	489.0928322000009	alternation	2		23	490.19757930000105	0.19164599999930942
39	489.2844782000002	alternation	3		25	490.38922530000036	0.20826889999989362
39	489.4927471000001	alternation	4		24	490.59749420000026	0.1999801000001753
39	489.69272720000026	alternation	5		24	490.79747430000043	0.19830840000031458
39	489.8910356000006	alternation	6		24	490.99578270000075	0.20000830000026326
39	490.09104390000084	alternation	7		24	491.195791000001	0.19994799999949464
39	490.29099190000034	alternation	8		24	491.3957390000005	0.1999986999999237
39	490.49099060000026	alternation	9		24	491.5957377000004	0.20000489999983984
39	490.6909955000001	alternation	10		24	491.79574260000027	0.20000250000066444
39	490.89099800000076	alternation	11		24	491.99574510000093	0.19997199999943405
39	491.0909700000002	alternation	12		24	492.19571710000037	0.20002280000062456
39	491.2909928000008	alternation	13		24	492.395739900001	0.19999519999964832
39	491.49098800000047	alternation	14		24	492.59573510000064	0.20169780000014725
39	491.6926858000006	alternation	15		24	492.7974329000008	0.19966519999979937
39	491.8923510000004	alternation	16		23	492.9970981000006	0.1920153000000937
39	492.0843663000005	alternation	17		25	493.1891134000007	0.20830860000023677
39	492.29267490000075	alternation	18		24	493.3974220000009	0.2000014999994164
39	492.49267640000016	alternation	19		24	493.59742350000033	0.19995290000042587
39	492.6926293000006	alternation	20		24	493.79737640000076	0.19831890000023122
39	492.8909482000008	alternation	21		24	493.995695300001	0.1999718999995821
39	493.0909201000004	alternation	22		24	494.19566720000057	0.19999000000007072
39	493.2909101000005	alternation	23		24	494.39565720000064	0.1998665000000983
39	493.4907766000006	alternation	24		24	494.59552370000074	0.20014399999945454
39	493.6909206	alternation	25		24	494.7956677000002	0.199964500000533
39	493.89088510000056	alternation	26		24	494.9956322000007	0.1997842999999193
39	494.0906694000005	alternation	27		24	495.19541650000065	0.20023179999952845
39	494.2909012	alternation	28		24	495.3956483000002	0.19997580000017479
39	494.4908770000002	alternation	29		24	495.59562410000035	0.20175939999990078
39	494.6926364000001	alternation	30		24	495.79738350000025	0.199959100000342
39	494.8925955000004	alternation	31		21	495.9973426000006	0.174980300000243
39	495.04510500000015	response	31	space		496.1498521000003	
40	495.06757580000067	text_phase	0		339	496.17232290000084	2.824910799999998
40	497.87604720000036	response	0	space		498.9807943000005	
41	497.89248660000067	text_phase	0		5245	498.99723370000083	43.7070120999997
41	541.5830804000007	response	0	space		542.6878275000008	
42	541.5994987000004	alternation	0		25	542.7042458000005	0.2082434000003559
42	541.8077421000007	alternation	1		24	542.9124892000009	0.1983141999999134
42	542.0060563000006	alternation	2		24	543.1108034000008	0.1999664999993911
42	542.2060228	alternation	3		24	543.3107699000002	0.20000740000068618
42	542.4060302000007	alternation	4		24	543.5107773000009	0.2000092999996923
42	542.6060395000004	alternation	5		24	543.7107866000006	0.1999948000002405
42	542.8060343000006	alternation	6		24	543.9107814000008	0.20001830000001064
42	543.0060526000007	alternation	7		24	544.1107997000008	0.19983789999969304
42	543.2058905000004	alternation	8		24	544.3106376000005	0.2001257000001715
42	543.4060162000005	alternation	9		24	544.5107633000007	0.20003619999988587
42	543.6060524000004	alternation	10		24	544.7107995000006	0.20176859999992303
42	543.8078210000003	alternation	11		24	544.9125681000005	0.19960179999998218
42	544.0074228000003	alternation	12		24	545.1121699000005	0.20001229999979842
42	544.2074351000001	alternation	13		24	545.3121822000003	0.2003284000002168
42	544.4077635000003	alternation	14		24	545.5125106000005	0.19997500000044965
42	544.6077385000008	alternation	15		24	545.712485600001	0.1999644999996235
42	544.8077030000004	alternation	16		24	545.9124501000006	0.19820609999987937
42	545.0059091000003	alternation	17		24	546.1106562000004	0.19992249999995693
42	545.2058316000002	alternation	18		24	546.3105787000004	0.2001166000000012
42	545.4059482000002	alternation	19		24	546.5106953000004	0.19999040000038804
42	545.6059386000006	alternation	20		24	546.7106857000008	0.2000466999998025
42	545.8059853000004	alternation	21		24	546.9107324000006	0.19999670000015612
42	546.0059820000006	alternation	22		24	547.1107291000008	0.19994249999945168
42	546.2059245	alternation	23		24	547.3106716000002	0.2000426000004154
42	546.4059671000005	alternation	24		24	547.5107142000006	0.20000230000005104
42	546.6059694000005	alternation	25		24	547.7107165000007	0.20165019999967626
42	546.8076196000002	alternation	26		24	547.9123667000003	0.2000768000007156
42	547.0076964000009	alternation	27		24	548.1124435000011	0.19994819999919855
42	547.2076446000001	alternation	28		24	548.3123917000003	0.19997800000055577
42	547.4076226000006	alternation	29		24	548.5123697000008	0.19998450000002777
42	547.6076071000007	alternation	30		24	548.7123542000008	0.1983046999994258
42	547.8059118000001	alternation	31		24	548.9106589000003	0.19999650000045222
42	548.0059083000006	alternation	32		24	549.1106554000007	0.19999250000000757
42	548.2059008000006	alternation	33		24	549.3106479000007	0.19994990000031976
42	548.4058507000009	alternation	34		24	549.510597800001	0.20005219999984547
42	548.6059029000007	alternation	35		24	549.7106500000009	0.19998189999932947
42	548.8058848000001	alternation	36		24	549.9106319000002	0.19998610000038752
42	549.0058709000004	alternation	37		24	550.1106180000006	0.19997559999956138
42	549.2058465	alternation	38		24	550.3105936000002	0.19997140000032232
42	549.4058179000003	alternation	39		8	550.5105650000005	0.06839430000036373
42	549.4577774000009	response	39	space		550.562524500001	
43	549.4742122000007	alternation	0		24	550.5789593000009	0.20000840000011522
43	549.6742206000008	alternation	1		24	550.778967700001	0.19998609999947803
43	549.8742067000003	alternation	2		25	550.9789538000005	0.20825200000035693
43	550.0824587000006	alternation	3		24	551.1872058000008	0.20006939999984752
43	550.2825281000005	alternation	4		24	551.3872752000007	0.1981671000003189
43	550.4806952000008	alternation	5		24	551.585442300001	0.200084600000082
43	550.6807798000009	alternation	6		24	551.7855269000011	0.19998859999941487
43	550.8807684000003	alternation	7		24	551.9855155000005	0.19999809999990248
43	551.0807665000002	alternation	8		24	552.1855136000004	0.20000440000058006
43	551.2807709000008	alternation	9		24	552.385518000001	0.19991249999930005
43	551.4806834000001	alternation	10		24	552.5854305000003	0.2000807000003988
43	551.6807641000005	alternation	11		24	552.7855112000007	0.20001950000005309
43	551.8807836000005	alternation	12		24	552.9855307000007	0.19999159999952099
43	552.0807752000001	alternation	13		24	553.1855223000002	0.19956309999997757
43	552.2803383	alternation	14		24	553.3850854000002	0.20218320000003587
43	552.4825215000001	alternation	15		24	553.5872686000002	0.1999087000003783
43	552.6824302000005	alternation	16		24	553.7871773000006	0.20008969999980764
43	552.8825199000003	alternation	17		24	553.9872670000004	0.19991920000029495
43	553.0824391000006	alternation	18		24	554.1871862000007	0.20000290000007226
43	553.2824420000006	alternation	19		24	554.3871891000008	0.1982905999993818
43	553.4807326	alternation	20		24	554.5854797000002	0.19999650000045222
43	553.6807291000005	alternation	21		24	554.7854762000006	0.19994760000008682
43	553.8806767000005	alternation	22		24	554.9854238000007	0.2000302999995256
43	554.0807070000001	alternation	23		24	555.1854541000002	0.19997010000042792
43	554.2806771000005	alternation	24		24	555.3854242000007	0.20001890000003186
43	554.4806960000005	alternation	25		24	555.5854431000007	0.199960199999623
43	554.6806562000002	alternation	26		24	555.7854033000003	0.20004340000014054
43	554.8806996000003	alternation	27		24	555.9854467000005	0.1998180999999022
43	555.0805177000002	alternation	28		24	556.1852648000004	0.20184599999993225
43	555.2823637000001	alternation	29		24	556.3871108000003	0.20000170000002981
43	555.4823654000002	alternation	30		24	556.5871125000003	0.19998820000000705
43	555.6823536000002	alternation	31		24	556.7871007000003	0.2000567000004594
43	555.8824103000006	alternation	32		24	556.9871574000008	0.19998779999968974
43	556.0823981000003	alternation	33		24	557.1871452000005	0.19820520000030228
43	556.2806033000006	alternation	34		24	557.3853504000008	0.200036999999611
43	556.4806403000002	alternation	35		24	557.5853874000004	0.19982330000038928
43	556.6804636000006	alternation	36		24	557.7852107000008	0.2001546999999846
43	556.8806183000006	alternation	37		24	557.9853654000008	0.19999680000000808
43	557.0806151000006	alternation	38		24	558.1853622000008	0.19995319999998173
43	557.2805683000006	alternation	39		24	558.3853154000008	0.19999509999979637
43	557.4805634000004	alternation	40		24	558.5853105000006	0.2000660000003336
43	557.6806294000007	alternation	41		24	558.7853765000009	0.19995010000002367
43	557.8805795000007	alternation	42		24	558.9853266000009	0.2018419999994876
43	558.0824215000002	alternation	43		24	559.1871686000004	0.1998884000004182
43	558.2823099000007	alternation	44		24	559.3870570000008	0.1999735999997938
43	558.4822835000004	alternation	45		24	559.5870306000006	0.20006130000001576
43	558.6823448000005	alternation	46		24	559.7870919000006	0.19990270000016608
43	558.8822475000006	alternation	47		24	559.9869946000008	0.19826850000026752
43	559.0805160000009	alternation	48		24	560.1852631000011	0.20000509999954375
43	559.2805211000004	alternation	49		24	560.3852682000006	0.20000009999967006
43	559.4805212000001	alternation	50		24	560.5852683000003	0.20001649999994697
43	559.6805377000001	alternation	51		24	560.7852848000002	0.19995450000078563
43	559.8583194000003	response	51	space		560.9630665000004	
44	559.8804922000008	alternation	0		25	560.985239300001	0.2083368999992672
44	560.0888291000001	alternation	1		23	561.1935762000003	0.19164730000011332
44	560.2804764000002	alternation	2		25	561.3852235000004	0.2083505000000514
44	560.4888269000003	alternation	3		24	561.5935740000004	0.20004860000062763
44	560.6888755000009	alternation	4		23	561.7936226000011	0.19336899999962043
44	560.8822445000005	alternation	5		24	561.9869916000007	0.19995360000029905
44	561.0821981000008	alternation	6		24	562.186945200001	0.19998309999937192
44	561.2821812000002	alternation	7		24	562.3869283000004	0.19999540000026172
44	561.4821766000005	alternation	8		24	562.5869237000006	0.19998409999971045
44	561.6821607000002	alternation	9		25	562.7869078000003	0.20668770000065706
44	561.8888484000008	alternation	10		24	562.993595500001	0.19994669999960024
44	562.0887951000004	alternation	11		24	563.1935422000006	0.1999550000000454
44	562.2887501000005	alternation	12		24	563.3934972000006	0.20003189999988535
44	562.4887820000004	alternation	13		24	563.5935291000005	0.19996160000027885
44	562.6887436000006	alternation	14		24	563.7934907000008	0.19999339999958465
44	562.8887370000002	alternation	15		24	563.9934841000004	0.19998910000049364
44	563.0887261000007	alternation	16		24	564.1934732000009	0.19999399999960588
44	563.2887201000003	alternation	17		24	564.3934672000005	0.20002819999990606
44	563.4887483000002	alternation	18		23	564.5934954000004	0.19337290000021312
44	563.6821212000004	alternation	19		24	564.7868683000006	0.2000239999997575
44	563.8821452000002	alternation	20		24	564.9868923000004	0.19995530000051076
44	564.0821005000007	alternation	21		24	565.1868476000009	0.1999867999993512
44	564.2820873000001	alternation	22		24	565.3868344000002	0.19999430000007123
44	564.4820816000001	alternation	23		25	565.5868287000003	0.20659729999988485
44	564.6886789	alternation	24		24	565.7934260000002	0.19999290000032488
44	564.8886718000003	alternation	25		24	565.9934189000005	0.2000226999998631
44	565.0886945000002	alternation	26		24	566.1934416000004	0.20002130000011675
44	565.2887158000003	alternation	27		24	566.3934629000005	0.1999562999999398
44	565.4886721000003	alternation	28		24	566.5934192000004	0.19983349999984057
44	565.6885056000001	alternation	29		24	566.7932527000003	0.2001341000004686
44	565.8886397000006	alternation	30		24	566.9933868000007	0.2000373999999283
44	566.0886771000005	alternation	31		24	567.1934242000007	0.199960199999623
44	566.2886373000001	alternation	32		23	567.3933844000003	0.19339029999991908
44	566.4820276	alternation	33		24	567.5867747000002	0.1999552000006588
44	566.6819828000007	alternation	34		24	567.7867299000009	0.2000662000000375
44	566.8820490000007	alternation	35		24	567.9867961000009	0.19998929999928805
44	567.0820383	alternation	36		25	568.1867854000002	0.2065604000008534
44	567.2885987000009	alternation	37		24	568.393345800001	0.20003279999946244
44	567.4886315000003	alternation	38		24	568.5933786000005	0.19998839999971096
44	567.6886199	alternation	39		24	568.7933670000002	0.19996480000008887
44	567.8885847000001	alternation	40		24	568.9933318000003	0.19999020000068413
44	568.0885749000008	alternation	41		24	569.193322000001	0.1999962999998388
44	568.2885712000007	alternation	42		24	569.3933183000008	0.19998909999958414
44	568.4885603000002	alternation	43		24	569.5933074000004	0.20000270000036835
44	568.6885630000006	alternation	44		24	569.7933101000008	0.200025099999948
44	568.8885881000006	alternation	45		24	569.9933352000007	0.20169850000002043
44	569.0902866000006	alternation	46		23	570.1950337000007	0.19168009999975766
44	569.2819667000003	alternation	47		24	570.3867138000005	0.19999280000047293
44	569.4819595000008	alternation	48		24	570.586706600001	0.1999894000000495
44	569.6819489000009	alternation	49		24	570.786696000001	0.19995879999987665
44	569.8819077000007	alternation	50		5	570.9866548000009	0.041737300000022515
44	569.9072104000006	response	50	space		571.0119575000008	
45	569.9236450000008	alternation	0		25	571.0283921000009	0.20652629999949568
45	570.1301713000003	alternation	1		24	571.2349184000004	0.19999410000036733
45	570.3301654000006	alternation	2		24	571.4349125000008	0.20000290000007226
45	570.5301683000007	alternation	3		24	571.6349154000009	0.2000239999997575
45	570.7301923000005	alternation	4		24	571.8349394000006	0.19995850000032078
45	570.9301508000008	alternation	5		24	572.0348979000009	0.20002649999969435
45	571.1301773000005	alternation	6		24	572.2349244000006	0.19995939999989787
45	571.3301367000004	alternation	7		24	572.4348838000005	0.20003360000009707
45	571.5301703000005	alternation	8		24	572.6349174000006	0.19995980000021518
45	571.7301301000007	alternation	9		24	572.8348772000008	0.2017705999996906
45	571.9319007000004	alternation	10		24	573.0366478000005	0.1996675000000323
45	572.1315682000004	alternation	11		24	573.2363153000006	0.19991860000027373
45	572.3314868000007	alternation	12		24	573.4362339000008	0.20035049999933108
45	572.5318373	alternation	13		24	573.6365844000002	0.19965910000064468
45	572.7314964000007	alternation	14		24	573.8362435000008	0.20035740000002988
45	572.9318538000007	alternation	15		24	574.0366009000008	0.19822999999996682
45	573.1300838000006	alternation	16		24	574.2348309000008	0.20003389999965293
45	573.3301177000003	alternation	17		24	574.4348648000005	0.19995689999996102
45	573.5300746000003	alternation	18		24	574.6348217000004	0.2000322000003507
45	573.7301068000006	alternation	19		24	574.8348539000008	0.19999529999950028
45	573.9301021000001	alternation	20		24	575.0348492000003	0.1998358000000735
45	574.1299379000002	alternation	21		24	575.2346850000004	0.20015479999983654
45	574.3300927	alternation	22		24	575.4348398000002	0.19995920000019396
45	574.5300519000002	alternation	23		24	575.6347990000004	0.1999868000002607
45	574.7300387000005	alternation	24		24	575.8347858000006	0.2017716999998811
45	574.9318104000004	alternation	25		24	576.0365575000005	0.19994219999989582
45	575.1317526000003	alternation	26		24	576.2364997000004	0.19999660000030417
45	575.3317492000006	alternation	27		24	576.4364963000007	0.19997330000023794
45	575.5317225000008	alternation	28		24	576.636469600001	0.20001539999975648
45	575.7317379000006	alternation	29		24	576.8364850000007	0.19827639999948588
45	575.9300143	alternation	30		24	577.0347614000002	0.19997700000021723
45	576.1299913000003	alternation	31		24	577.2347384000004	0.1999943999999232
45	576.3299857000002	alternation	32		24	577.4347328000003	0.1999857000000702
45	576.5299714000002	alternation	33		24	577.6347185000004	0.19999490000009246
45	576.7299663000003	alternation	34		24	577.8347134000005	0.20000080000045273
45	576.9299671000008	alternation	35		24	578.034714200001	0.20000959999924817
45	577.1299767	alternation	36		24	578.2347238000002	0.19998600000053557
45	577.3299627000006	alternation	37		24	578.4347098000007	0.19997659999989992
45	577.5299393000005	alternation	38		24	578.6346864000006	0.2017585000003237
45	577.7316978000008	alternation	39		24	578.836444900001	0.1999642999999196
45	577.9316621000007	alternation	40		24	579.0364092000009	0.20000709999931132
45	578.1316692	alternation	41		24	579.2364163000002	0.20008159999997588
45	578.3317508	alternation	42		24	579.4364979000002	0.1999009000001024
45	578.5316517000001	alternation	43		23	579.6363988000003	0.19168360000003304
45	578.7007675000004	response	43	space		579.8055146000006	
46	578.7233353000001	alternation	0		25	579.8280824000003	0.20657050000045274
46	578.9299058000006	alternation	1		24	580.0346529000008	0.19998880000002828
46	579.1298946000006	alternation	2		24	580.2346417000008	0.20002889999977924
46	579.3299235000004	alternation	3		24	580.4346706000006	0.19995959999960178
46	579.5298831	alternation	4		24	580.6346302000002	0.19999430000007123
46	579.7298774000001	alternation	5		24	580.8346245000002	0.20000170000002981
46	579.9298791000001	alternation	6		24	581.0346262000003	0.20000200000049517
46	580.1298811000006	alternation	7		24	581.2346282000008	0.20001369999954477
46	580.3298948000001	alternation	8		24	581.4346419000003	0.20000600000003033
46	580.5299008000002	alternation	9		24	581.6346479000003	0.20168520000061108
46	580.7315860000008	alternation	10		24	581.836333100001	0.2000287999999273
46	580.9316148000007	alternation	11		24	582.0363619000009	0.1999497999995583
46	581.1315646000003	alternation	12		24	582.2363117000004	0.19999040000038804
46	581.3315550000007	alternation	13		24	582.4363021000008	0.20000590000017837
46	581.5315609000008	alternation	14		24	582.636308000001	0.19825929999933578
46	581.7298202000002	alternation	15		24	582.8345673000003	0.2000039000004108
46	581.9298241000006	alternation	16		24	583.0345712000008	0.20002169999952457
46	582.1298458000001	alternation	17		24	583.2345929000003	0.19996570000057545
46	582.3298115000007	alternation	18		24	583.4345586000009	0.19998349999968923
46	582.5297950000004	alternation	19		24	583.6345421000005	0.20000040000013541
46	582.7297954000005	alternation	20		24	583.8345425000007	0.20001150000007328
46	582.9298069000006	alternation	21		24	584.0345540000008	0.19996069999979227
46	583.1297676000004	alternation	22		24	584.2345147000005	0.20000309999977617
46	583.3297707000002	alternation	23		24	584.4345178000003	0.20172600000023522
46	583.5314967000004	alternation	24		24	584.6362438000006	0.1999869999999646
46	583.7314837000004	alternation	25		24	584.8362308000005	0.20009720000052766
46	583.9315809000009	alternation	26		24	585.036328000001	0.19992899999942892
46	584.1315099000003	alternation	27		24	585.2362570000005	0.1999575999998342
46	584.3314675000001	alternation	28		24	585.4362146000003	0.20000290000007226
46	584.5314704000002	alternation	29		24	585.6362175000004	0.19827230000009877
46	584.7297427000003	alternation	30		24	585.8344898000005	0.19997849999981554
46	584.9297212000001	alternation	31		24	586.0344683000003	0.20002999999996973
46	585.1297512000001	alternation	32		24	586.2344983000003	0.19995730000027834
46	585.3297085000004	alternation	33		24	586.4344556000005	0.19997919999968872
46	585.5296877000001	alternation	34		24	586.6344348000002	0.19999910000024101
46	585.7296868000003	alternation	35		24	586.8344339000005	0.20003100000030827
46	585.9297178000006	alternation	36		24	587.0344649000008	0.1999577999995381
46	586.1296756000002	alternation	37		24	587.2344227000003	0.19999280000047293
46	586.3296684000006	alternation	38		24	587.4344155000008	0.20173699999941164
46	586.5314054	alternation	39		24	587.6361525000002	0.19998820000000705
46	586.7313936	alternation	40		24	587.8361407000002	0.1999511000003622
46	586.9313447000004	alternation	41		24	588.0360918000006	0.2000610000004599
46	587.1314057000009	alternation	42		20	588.236152800001	0.16673369999989518
46	587.2756449000008	response	42	space		588.3803920000009	
47	587.2981394000008	alternation	0		25	588.4028865000009	0.20817769999939628
47	587.5063171000002	alternation	1		24	588.6110642000003	0.19834910000008676
47	587.7046662000002	alternation	2		24	588.8094133000004	0.19996979999996256
47	587.9046360000002	alternation	3		24	589.0093831000004	0.1999812000003658
47	588.1046172000006	alternation	4		24	589.2093643000007	0.20002959999965242
47	588.3046468000002	alternation	5		24	589.4093939000004	0.19997070000044914
47	588.5046175000007	alternation	6		24	589.6093646000008	0.20006649999959336
47	588.7046840000003	alternation	7		24	589.8094311000004	0.19995139999991807
47	588.9046354000002	alternation	8		24	590.0093825000004	0.20000510000045324
47	589.1046405000006	alternation	9		24	590.2093876000008	0.19996219999939058
47	589.3046027	alternation	10		24	590.4093498000002	0.20171320000008564
47	589.5063159000001	alternation	11		24	590.6110630000003	0.19998780000059924
47	589.7063037000007	alternation	12		24	590.8110508000009	0.19999519999964832
47	589.9062989000004	alternation	13		24	591.0110460000005	0.20000200000049517
47	590.1063009000009	alternation	14		24	591.211048000001	0.20004029999927297
47	590.3063412000001	alternation	15		24	591.4110883000003	0.19820030000028055
47	590.5045415000004	alternation	16		24	591.6092886000006	0.19999920000009297
47	590.7045407000005	alternation	17		24	591.8092878000007	0.2000398000000132
47	590.9045805000005	alternation	18		24	592.0093276000007	0.199988299999859
47	591.1045688000004	alternation	19		24	592.2093159000005	0.1999631999997291
47	591.3045320000001	alternation	20		24	592.4092791000003	0.20001250000041182
47	591.5045445000005	alternation	21		24	592.6092916000007	0.19997239999975136
47	591.7045169000003	alternation	22		24	592.8092640000004	0.2000370000005205
47	591.9045539000008	alternation	23		24	593.009301000001	0.19998869999926683
47	592.1045426000001	alternation	24		24	593.2092897000002	0.20168809999995574
47	592.3062307	alternation	25		24	593.4109778000002	0.19998460000078921
47	592.5062153000008	alternation	26		24	593.610962400001	0.19999539999935223
47	592.7062107000002	alternation	27		24	593.8109578000003	0.19999009999992268
47	592.9062008000001	alternation	28		24	594.0109479000002	0.20002480000039213
47	593.1062256000005	alternation	29		24	594.2109727000006	0.19822519999979704
47	593.3044508000003	alternation	30		24	594.4091979000004	0.2000026000005164
47	593.5044534000008	alternation	31		24	594.609200500001	0.20002199999998993
47	593.7044754000008	alternation	32		8	594.8092225000009	0.06663519999983691
47	593.7548118000004	response	32	space		594.8595589000006	
48	593.7711106000006	alternation	0		25	594.8758577000008	0.20834039999954257
48	593.9794510000002	alternation	1		24	595.0841981000003	0.1999924000001556
48	594.1794434000003	alternation	2		24	595.2841905000005	0.20001330000013695
48	594.3794567000004	alternation	3		24	595.4842038000006	0.19996859999992012
48	594.5794253000004	alternation	4		24	595.6841724000005	0.20001669999965088
48	594.779442	alternation	5		24	595.8841891000002	0.200030500000139
48	594.9794725000002	alternation	6		23	596.0842196000003	0.1933567000005496
48	595.1728292000007	alternation	7		24	596.2775763000009	0.19997220000004745
48	595.3728014000008	alternation	8		24	596.4775485000009	0.20002729999941948
48	595.5728287000002	alternation	9		24	596.6775758000003	0.19995150000067952
48	595.7727802000009	alternation	10		24	596.877527300001	0.19999659999939468
48	595.9727768000002	alternation	11		25	597.0775239000004	0.20663039999999455
48	596.1794072000002	alternation	12		24	597.2841543000004	0.19994920000044658
48	596.3793564000007	alternation	13		24	597.4841035000009	0.20003369999994902
48	596.5793901000006	alternation	14		24	597.6841372000008	0.1999945999996271
48	596.7793847000003	alternation	15		24	597.8841318000004	0.19995730000027834
48	596.9793420000005	alternation	16		24	598.0840891000007	0.2000065000001996
48	597.1793485000007	alternation	17		3	598.2840956000009	0.02500439999948867
48	597.1879069000006	response	17	space		598.2926540000008	
49	597.2043529000002	alternation	0		25	598.3091000000004	0.2083198000000266
49	597.4126727000003	alternation	1		23	598.5174198000004	0.19165690000045288
49	597.6043296000007	alternation	2		25	598.7090767000009	0.20838579999963258
49	597.8127154000003	alternation	3		23	598.9174625000005	0.19333340000048338
49	598.0060488000008	alternation	4		24	599.110795900001	0.2000011000000086
49	598.2060499000008	alternation	5		24	599.310797000001	0.20005569999921136
49	598.4061056	alternation	6		24	599.5108527000002	0.19992130000082398
49	598.6060269000009	alternation	7		24	599.710774000001	0.20003159999942
49	598.8060585000003	alternation	8		25	599.9108056000005	0.2065907000005609
49	599.0126492000009	alternation	9		24	600.117396300001	0.1999588999997286
49	599.2126081000006	alternation	10		24	600.3173552000007	0.1999958999995215
49	599.4126040000001	alternation	11		24	600.5173511000003	0.19998860000032437
49	599.6125926000004	alternation	12		24	600.7173397000006	0.20002469999963068
49	599.8126173	alternation	13		24	600.9173644000002	0.20000350000009348
49	600.0126208000001	alternation	14		24	601.1173679000003	0.19996380000065983
49	600.2125846000008	alternation	15		24	601.317331700001	0.20003129999986413
49	600.4126159000007	alternation	16		24	601.5173630000008	0.19994359999964217
49	600.6125595000003	alternation	17		23	601.7173066000005	0.19343410000055883
49	600.8059936000009	alternation	18		24	601.910740700001	0.20000359999994544
49	601.0059972000008	alternation	19		24	602.110744300001	0.19997559999956138
49	601.2059728000004	alternation	20		24	602.3107199000005	0.20000880000043253
49	601.4059816000008	alternation	21		24	602.510728700001	0.199954799999432
49	601.6059364000002	alternation	22		25	602.7106835000004	0.20658999999977823
49	601.8125264	alternation	23		24	602.9172735000002	0.2000255000002653
49	602.0125519000003	alternation	24		24	603.1172990000005	0.1999522000005527
49	602.2125041000008	alternation	25		24	603.317251200001	0.20003749999978027
49	602.4125416000006	alternation	26		24	603.5172887000008	0.19994880000012927
49	602.6124904000008	alternation	27		24	603.7172375000009	0.1999974000000293
49	602.8124878000008	alternation	28		24	603.917234900001	0.20002649999969435
49	603.0125143000005	alternation	29		24	604.1172614000006	0.19997570000032283
49	603.2124900000008	alternation	30		20	604.317237100001	0.16665009999996983
49	603.3626948000001	response	30	space		604.4674419000003	
50	603.3791401000008	alternation	0		24	604.4838872000009	0.20174279999991995
50	603.5808829000007	alternation	1		24	604.6856300000009	0.2000502000000779
50	603.7809331000008	alternation	2		24	604.8856802000009	0.1999400999993668
50	603.9808732000001	alternation	3		24	605.0856203000003	0.19997690000036528
50	604.1808501000005	alternation	4		24	605.2855972000007	0.20002370000020164
50	604.3808738000007	alternation	5		24	605.4856209000009	0.19823790000009467
50	604.5791117000008	alternation	6		24	605.683858800001	0.1999932999997327
50	604.7791050000005	alternation	7		25	605.8838521000007	0.20831689999977243
50	604.9874219000003	alternation	8		24	606.0921690000005	0.20001140000022133
50	605.1874333000005	alternation	9		24	606.2921804000007	0.19997830000011163
50	605.3874116000006	alternation	10		24	606.4921587000008	0.1999961000001349
50	605.5874077000008	alternation	11		24	606.6921548000009	0.19998739999937243
50	605.7873951000001	alternation	12		24	606.8921422000003	0.20000359999994544
50	605.9873987000001	alternation	13		24	607.0921458000003	0.2000029999999242
50	606.1874017	alternation	14		23	607.2921488000002	0.19339390000004641
50	606.3807956	alternation	15		24	607.4855427000002	0.1999863999999434
50	606.580782	alternation	16		24	607.6855291000002	0.19998930000019755
50	606.7807713000002	alternation	17		24	607.8855184000004	0.20000040000013541
50	606.9807717000003	alternation	18		24	608.0855188000005	0.1999805000004926
50	607.1807522000008	alternation	19		25	608.285499300001	0.20661509999990813
50	607.3873673000007	alternation	20		24	608.4921144000009	0.20001669999965088
50	607.5873840000004	alternation	21		24	608.6921311000006	0.19996340000034252
50	607.7873474000007	alternation	22		24	608.8920945000009	0.1999878999995417
50	607.9873353000003	alternation	23		24	609.0920824000004	0.20002130000011675
50	608.1873566000004	alternation	24		24	609.2921037000006	0.19996720000017376
50	608.3873238000006	alternation	25		24	609.4920709000007	0.19999939999979688
50	608.5873232000004	alternation	26		10	609.6920703000005	0.08332090000021708
50	608.6481126000008	response	26	space		609.752859700001	
51	608.6706441000006	alternation	0		25	609.7753912000007	0.20832700000028126
51	608.8789711000009	alternation	1		24	609.983718200001	0.19999099999949976
51	609.0789621000004	alternation	2		23	610.1837092000005	0.19339149999996152
51	609.2723536000003	alternation	3		24	610.3771007000005	0.1999844000001758
51	609.4723380000005	alternation	4		24	610.5770851000007	0.20003110000016022
51	609.6723691000007	alternation	5		24	610.7771162000008	0.20007429999986925
51	609.8724434000005	alternation	6		24	610.9771905000007	0.19994599999972706
51	610.0723894000002	alternation	7		25	611.1771365000004	0.20654060000015306
51	610.2789300000004	alternation	8		24	611.3836771000006	0.2000342000001183
51	610.4789642000005	alternation	9		24	611.5837113000007	0.19995019999987562
51	610.6789144000004	alternation	10		24	611.7836615000006	0.1999935000003461
51	610.8789079000007	alternation	11		24	611.9836550000009	0.20002969999950437
51	611.0789376000002	alternation	12		24	612.1836847000004	0.1999946000005366
51	611.2789322000008	alternation	13		24	612.383679300001	0.19999370000005
51	611.4789259000008	alternation	14		24	612.583673000001	0.19998949999990145
51	611.6789154000007	alternation	15		24	612.7836625000009	0.19999149999966903
51	611.8789069000004	alternation	16		23	612.9836540000006	0.19338129999960074
51	612.0722882	alternation	17		24	613.1770353000002	0.2000229000004765
51	612.2723111000005	alternation	18		24	613.3770582000006	0.1999587000000247
51	612.4722698000005	alternation	19		24	613.5770169000007	0.20002190000013798
51	612.6722917000006	alternation	20		24	613.7770388000008	0.1999971999994159
51	612.8722889000001	alternation	21		25	613.9770360000002	0.20657150000079127
51	613.0788604000008	alternation	22		24	614.183607500001	0.2000275000000329
51	613.2788879000009	alternation	23		24	614.383635000001	0.19998349999968923
51	613.4788714000006	alternation	24		24	614.5836185000007	0.1999551999997493
51	613.6788266000003	alternation	25		24	614.7835737000005	0.20000270000036835
51	613.8788293000007	alternation	26		24	614.9835764000009	0.19998729999952047
51	614.0788166000002	alternation	27		24	615.1835637000004	0.19999770000049466
51	614.2788143000007	alternation	28		24	615.3835614000009	0.19998539999960485
51	614.4787997000003	alternation	29		18	615.5835468000005	0.15000349999991158
51	614.6122319000006	response	29	space		615.7169790000007	
52	614.6288032000002	alternation	0		24	615.7335503000004	0.2017810000006648
52	614.8305842000009	alternation	1		24	615.935331300001	0.19997109999985696
52	615.0305553000007	alternation	2		24	616.1353024000009	0.19997779999994236
52	615.2305331000007	alternation	3		24	616.3352802000009	0.199996999999712
52	615.4305301000004	alternation	4		24	616.5352772000006	0.20001779999984137
52	615.6305479000002	alternation	5		24	616.7352950000004	0.19999820000066393
52	615.8305461000009	alternation	6		25	616.9352932000011	0.2065705999993952
52	616.0371167000003	alternation	7		24	617.1418638000005	0.19997289999992063
52	616.2370896000002	alternation	8		24	617.3418367000004	0.19985900000028778
52	616.4369486000005	alternation	9		24	617.5416957000007	0.20013550000021496
52	616.6370841000007	alternation	10		24	617.7418312000009	0.2000226999998631
52	616.8371068000006	alternation	11		24	617.9418539000008	0.200002399999903
52	617.0371092000005	alternation	12		24	618.1418563000007	0.19997580000017479
52	617.2370850000007	alternation	13		24	618.3418321000008	0.19995560000006662
52	617.4370406000007	alternation	14		24	618.5417877000009	0.20003039999937755
52	617.6370710000001	alternation	15		23	618.7418181000003	0.19336590000057186
52	617.8304369000007	alternation	16		24	618.9351840000008	0.19999599999937345
52	618.0304329	alternation	17		24	619.1351800000002	0.20001830000001064
52	618.2304512000001	alternation	18		24	619.3351983000002	0.19995550000021467
52	618.4304067000003	alternation	19		24	619.5351538000004	0.20002440000007482
52	618.6304311000004	alternation	20		25	619.7351782000005	0.20660270000007586
52	618.8370338000004	alternation	21		24	619.9417809000006	0.19996609999998327
52	619.0369999000004	alternation	22		24	620.1417470000006	0.1999902999996266
52	619.2369902	alternation	23		24	620.3417373000002	0.20000080000045273
52	619.4369910000005	alternation	24		11	620.5417381000007	0.09165529999972932
52	619.5063485000001	response	24	space		620.6110956000002	
53	619.5286463000002	alternation	0		25	620.6333934000004	0.20837519999986398
53	619.7370215000001	alternation	1		23	620.8417686000003	0.19160749999991822
53	619.928629	alternation	2		24	621.0333761000002	0.19999550000011368
53	620.1286245000001	alternation	3		25	621.2333716000003	0.20836200000030658
53	620.3369865000004	alternation	4		23	621.4417336000006	0.1933804999998756
53	620.5303670000003	alternation	5		24	621.6351141000005	0.19965460000003077
53	620.7300216000003	alternation	6		24	621.8347687000005	0.2003101999998762
53	620.9303318000002	alternation	7		24	622.0350789000004	0.1999697000001106
53	621.1303015000003	alternation	8		24	622.2350486000005	0.20001959999990504
53	621.3303211000002	alternation	9		24	622.4350682000004	0.19963020000068354
53	621.5299513000009	alternation	10		24	622.6346984000011	0.1984495999995488
53	621.7284009000005	alternation	11		25	622.8331480000006	0.20853129999977682
53	621.9369322000002	alternation	12		24	623.0416793000004	0.19995730000027834
53	622.1368895000005	alternation	13		24	623.2416366000007	0.2000322000003507
53	622.3369217000009	alternation	14		24	623.441668800001	0.20001229999979842
53	622.5369340000007	alternation	15		24	623.6416811000008	0.19995139999991807
53	622.7368854000006	alternation	16		24	623.8416325000007	0.20002479999948264
53	622.9369102	alternation	17		24	624.0416573000002	0.1999935000003461
53	623.1369037000004	alternation	18		24	624.2416508000006	0.19996960000025865
53	623.3368733000007	alternation	19		23	624.4416204000008	0.19122849999985192
53	623.5281018000005	alternation	20		24	624.6328489000007	0.20220979999976407
53	623.7303116000003	alternation	21		24	624.8350587000004	0.19993450000038138
53	623.9302461000007	alternation	22		24	625.0349932000008	0.19994969999970635
53	624.1301958000004	alternation	23		24	625.2349429000005	0.1999924000001556
53	624.3301882000005	alternation	24		24	625.4349353000007	0.20002440000007482
53	624.5302126000006	alternation	25		25	625.6349597000008	0.20661610000024666
53	624.7368287000008	alternation	26		23	625.841575800001	0.20001499999943917
53	624.9368437000003	alternation	27		24	626.0415908000004	0.1999746999999843
53	625.1368184000003	alternation	28		24	626.2415655000004	0.20006960000046092
53	625.3368880000007	alternation	29		24	626.4416351000009	0.199900699999489
53	625.5367887000002	alternation	30		24	626.6415358000004	0.20003970000016125
53	625.7368284000004	alternation	31		24	626.8415755000005	0.19998690000011266
53	625.9368153000005	alternation	32		7	627.0415624000007	0.058285500000238244
53	625.9786538000008	response	32	space		627.0834009000009	
54	625.9951008000007	alternation	0		25	627.0998479000009	0.20833869999933086
54	626.2034395000001	alternation	1		23	627.3081866000002	0.19341110000004846
54	626.3968506000001	alternation	2		24	627.5015977000003	0.2000320000006468
54	626.5968826000008	alternation	3		24	627.7016297000009	0.1999402999999802
54	626.7968229000007	alternation	4		24	627.9015700000009	0.19962140000006912
54	626.9964443000008	alternation	5		24	628.101191400001	0.20039489999999205
54	627.1968392000008	alternation	6		24	628.301586300001	0.19975159999921743
54	627.3965908	alternation	7		24	628.5013379000002	0.20021470000028785
54	627.5968055000003	alternation	8		25	628.7015526000005	0.20661800000016228
54	627.8034235000005	alternation	9		24	628.9081706000006	0.1999667000000045
54	628.0033902000005	alternation	10		24	629.1081373000006	0.1999998000001142
54	628.2033900000006	alternation	11		24	629.3081371000007	0.19998080000004848
54	628.4033708000006	alternation	12		24	629.5081179000008	0.20000179999988177
54	628.6033726000005	alternation	13		24	629.7081197000007	0.19999050000024
54	628.8033631000008	alternation	14		24	629.9081102000009	0.19998200000009092
54	629.0033451000008	alternation	15		24	630.108092200001	0.20000309999977617
54	629.2033482000006	alternation	16		24	630.3080953000008	0.1995878999996421
54	629.4029361000003	alternation	17		23	630.5076832000004	0.19386949999989156
54	629.5968056000002	alternation	18		24	630.7015527000003	0.199905000000399
54	629.7967106000006	alternation	19		24	630.9014577000007	0.2000103999998828
54	629.9967210000004	alternation	20		24	631.1014681000006	0.19999800000005052
54	630.1967190000005	alternation	21		24	631.3014661000007	0.19997719999992114
54	630.3966962000004	alternation	22		25	631.5014433000006	0.20661540000037348
54	630.6033116000008	alternation	23		24	631.708058700001	0.20000529999924765
54	630.8033169	alternation	24		24	631.9080640000002	0.2000203000006877
54	631.0033372000007	alternation	25		24	632.1080843000009	0.19994059999953606
54	631.2032778000003	alternation	26		24	632.3080249000004	0.19999230000030366
54	631.4032701000006	alternation	27		24	632.5080172000007	0.2000436999996964
54	631.6033138000003	alternation	28		24	632.7080609000004	0.1999931000000288
54	631.8033069000003	alternation	29		24	632.9080540000004	0.19994670000050974
54	632.0032536000008	alternation	30		24	633.108000700001	0.1999975999997332
54	632.2032512000005	alternation	31		15	633.3079983000007	0.12675860000035755
54	632.3136032000002	response	31	space		633.4183503000004	
55	632.3300098000009	alternation	0		25	633.434756900001	0.20829809999941062
55	632.5383079000003	alternation	1		24	633.6430550000005	0.20004190000054223
55	632.7383498000008	alternation	2		24	633.843096900001	0.19994379999934608
55	632.9382936000002	alternation	3		24	634.0430407000003	0.1999881000001551
55	633.1382817000003	alternation	4		24	634.2430288000005	0.19826089999969554
55	633.3365426	alternation	5		24	634.4412897000002	0.20004860000062763
55	633.5365912000007	alternation	6		24	634.6413383000008	0.19997400000011112
55	633.7365652000008	alternation	7		24	634.8413123000009	0.1999588999997286
55	633.9365241000005	alternation	8		24	635.0412712000007	0.20001799999954528
55	634.1365421	alternation	9		24	635.2412892000002	0.19999800000005052
55	634.3365401000001	alternation	10		24	635.4412872000003	0.1999801000001753
55	634.5365202000003	alternation	11		24	635.6412673000004	0.19998589999977412
55	634.7365061	alternation	12		24	635.8412532000002	0.20000190000064322
55	634.9365080000007	alternation	13		24	636.0412551000009	0.20177199999943696
55	635.1382800000001	alternation	14		24	636.2430271000003	0.19995560000006662
55	635.3382356000002	alternation	15		24	636.4429827000004	0.20002759999988484
55	635.5382632000001	alternation	16		24	636.6430103000002	0.19997180000063963
55	635.7382350000007	alternation	17		24	636.8429821000009	0.1998809999995501
55	635.9381160000003	alternation	18		24	637.0428631000004	0.1983473000000231
55	636.1364633000003	alternation	19		24	637.2412104000005	0.19999420000021928
55	636.3364575000005	alternation	20		24	637.4412046000007	0.19998539999960485
55	636.5364429000001	alternation	21		24	637.6411900000003	0.2000355000000127
55	636.7364784000001	alternation	22		24	637.8412255000003	0.19995749999998225
55	636.9364359000001	alternation	23		24	638.0411830000003	0.2000293999999485
55	637.1364653	alternation	24		24	638.2412124000002	0.19995540000036272
55	637.3364207000004	alternation	25		24	638.4411678000006	0.20002959999965242
55	637.5364503000001	alternation	26		24	638.6411974000002	0.19997670000066137
55	637.7364270000007	alternation	27		24	638.8411741000009	0.201759999999922
55	637.9381870000007	alternation	28		24	639.0429341000008	0.19998229999964678
55	638.1381693000003	alternation	29		24	639.2429164000005	0.20000609999988228
55	638.3381754000002	alternation	30		24	639.4429225000003	0.19997839999996359
55	638.5381538000001	alternation	31		24	639.6429009000003	0.1999452999998539
55	638.7380991	alternation	32		24	639.8428462000002	0.19826930000090215
55	638.9363684000009	alternation	33		24	640.0411155000011	0.20002979999935633
55	639.1363982000003	alternation	34		24	640.2411453000004	0.199978600000577
55	639.3363768000008	alternation	35		3	640.441123900001	0.024978199999168282
55	639.3448876000002	response	35	space		640.4496347000004	
56	639.361355	alternation	0		25	640.4661021000002	0.2083310000007259
56	639.5696860000007	alternation	1		24	640.6744331000009	0.20003159999942
56	639.7697176000001	alternation	2		24	640.8744647000003	0.19995310000012978
56	639.9696707000003	alternation	3		24	641.0744178000004	0.1999935000003461
56	640.1696642000006	alternation	4		24	641.2744113000008	0.19999730000017735
56	640.3696615000008	alternation	5		24	641.474408600001	0.199994799999331
56	640.5696563000001	alternation	6		23	641.6744034000003	0.19342620000043098
56	640.7630825000006	alternation	7		24	641.8678296000007	0.19996619999983523
56	640.9630487000004	alternation	8		24	642.0677958000006	0.19998969999960536
56	641.1630384	alternation	9		24	642.2677855000002	0.19999650000045222
56	641.3630349000005	alternation	10		24	642.4677820000006	0.199988299999859
56	641.5630232000003	alternation	11		25	642.6677703000005	0.2066344000004392
56	641.7696576000008	alternation	12		24	642.8744047000009	0.199996999999712
56	641.9696546000005	alternation	13		24	643.0744017000006	0.1999892000003456
56	642.1696438000008	alternation	14		24	643.274390900001	0.1999638999996023
56	642.3696077000004	alternation	15		24	643.4743548000006	0.2000162000003911
56	642.5696239000008	alternation	16		24	643.674371000001	0.19996699999956036
56	642.7695909000004	alternation	17		24	643.8743380000005	0.20007629999963683
56	642.9696672	alternation	18		24	644.0744143000002	0.19994660000065778
56	643.1696138000007	alternation	19		24	644.2743609000008	0.1999558999996225
56	643.3695697000003	alternation	20		23	644.4743168000005	0.19343490000028396
56	643.5630046000006	alternation	21		24	644.6677517000007	0.19954469999993307
56	643.7625493000005	alternation	22		24	644.8672964000007	0.2004120999999941
56	643.9629614000005	alternation	23		24	645.0677085000007	0.20002409999960946
56	644.1629855000001	alternation	24		24	645.2677326000003	0.19996880000053352
56	644.3629543000006	alternation	25		24	645.4677014000008	0.20002060000024358
56	644.5629749000009	alternation	26		25	645.667722000001	0.20654229999945528
56	644.7695172000003	alternation	27		24	645.8742643000005	0.20000710000022082
56	644.9695243000006	alternation	28		24	646.0742714000007	0.1998395000000528
56	645.1693638000006	alternation	29		24	646.2741109000008	0.20018890000028478
56	645.3695527000009	alternation	30		15	646.4742998000011	0.12498779999987164
56	645.4788814000003	response	30	space		646.5836285000005	
57	645.4945405000008	alternation	0		24	646.5992876000009	0.20002149999982066
57	645.6945620000006	alternation	1		24	646.7993091000008	0.19995339999968564
57	645.8945154000003	alternation	2		24	646.9992625000004	0.19996350000019447
57	646.0944789000005	alternation	3		24	647.1992260000006	0.2000052000003052
57	646.2944841000008	alternation	4		24	647.3992312000009	0.20173949999934848
57	646.4962236000001	alternation	5		24	647.6009707000003	0.1999863999999434
57	646.6962100000001	alternation	6		24	647.8009571000002	0.199981800000387
57	646.8961918000005	alternation	7		24	648.0009389000006	0.20000609999988228
57	647.0961979000003	alternation	8		24	648.2009450000005	0.20001250000041182
57	647.2962104000007	alternation	9		24	648.4009575000009	0.19825069999933476
57	647.4944611000001	alternation	10		24	648.5992082000002	0.20000970000000962
57	647.6944708000001	alternation	11		24	648.7992179000003	0.19999650000045222
57	647.8944673000005	alternation	12		24	648.9992144000007	0.1999558999996225
57	648.0944232000002	alternation	13		24	649.1991703000003	0.20002699999986362
57	648.2944502	alternation	14		24	649.3991973000002	0.1999870000008741
57	648.4944372000009	alternation	15		24	649.5991843000011	0.19999909999933152
57	648.6944363000002	alternation	16		25	649.7991834000004	0.2082946999998967
57	648.9027310000001	alternation	17		24	650.0074781000003	0.20004080000035174
57	649.1027718000005	alternation	18		23	650.2075189000007	0.19340050000027986
57	649.2961723000008	alternation	19		24	650.4009194000009	0.19992849999925966
57	649.4961008	alternation	20		24	650.6008479000002	0.20001570000022184
57	649.6961165000002	alternation	21		24	650.8008636000004	0.2000824000006105
57	649.8961989000009	alternation	22		25	651.000946000001	0.20649329999923793
57	650.1026922000001	alternation	23		24	651.2074393000003	0.20003260000066803
57	650.3027248000008	alternation	24		24	651.4074719000009	0.19995380000000296
57	650.5026786000008	alternation	25		24	651.6074257000009	0.19999279999956343
57	650.7026714000003	alternation	26		24	651.8074185000005	0.19999879999977566
57	650.9026702000001	alternation	27		24	652.0074173000003	0.19998930000019755
57	651.1026595000003	alternation	28		24	652.2074066000005	0.2000290000005407
57	651.3026885000008	alternation	29		24	652.407435600001	0.19997389999934967
57	651.5026624000002	alternation	30		24	652.6074095000004	0.1998278000000937
57	651.7024902000003	alternation	31		23	652.8072373000005	0.19356109999989712
57	651.8960513000002	alternation	32		24	653.0007984000003	0.2000225000001592
57	652.0960738000003	alternation	33		24	653.2008209000005	0.19995569999991858
57	652.2960295000003	alternation	34		24	653.4007766000004	0.20001310000043304
57	652.4960426000007	alternation	35		24	653.6007897000009	0.19996619999983523
57	652.6960088000005	alternation	36		25	653.8007559000007	0.2066093000003093
57	652.9026181000008	alternation	37		24	654.007365200001	0.20001849999971455
57	653.1026366000006	alternation	38		24	654.2073837000007	0.19995139999991807
57	653.3025880000005	alternation	39		24	654.4073351000006	0.20004690000041592
57	653.5026349000009	alternation	40		24	654.607382000001	0.19999149999966903
57	653.7026264000006	alternation	41		24	654.8073735000007	0.19994119999955728
57	653.9025676000001	alternation	42		24	655.0073147000003	0.19999600000028295
57	654.1025636000004	alternation	43		24	655.2073107000006	0.2000292000002446
57	654.3025928000006	alternation	44		24	655.4073399000008	0.1999605999999403
57	654.5025534000006	alternation	45		18	655.6073005000007	0.15000510000027134
57	654.6361027000003	response	45	space		655.7408498000004	
58	654.6525585000009	alternation	0		24	655.757305600001	0.2017346999991787
58	654.8542932	alternation	1		24	655.9590403000002	0.1999842000004719
58	655.0542774000005	alternation	2		24	656.1590245000007	0.19998479999958363
58	655.2542622000001	alternation	3		24	656.3590093000003	0.20003750000068976
58	655.4542997000008	alternation	4		24	656.5590468000009	0.19995010000002367
58	655.6542498000008	alternation	5		25	656.758996900001	0.20660330000009708
58	655.8608531000009	alternation	6		24	656.9656002000011	0.20002819999990606
58	656.0608813000008	alternation	7		24	657.165628400001	0.1999657999995179
58	656.2608471000003	alternation	8		24	657.3655942000005	0.19999749999988126
58	656.4608446000002	alternation	9		24	657.5655917000004	0.19998870000017632
58	656.6608333000004	alternation	10		24	657.7655804000005	0.20001539999975648
58	656.8608487000001	alternation	11		24	657.9655958000003	0.1999922000004517
58	657.0608409000006	alternation	12		24	658.1655880000008	0.19995569999991858
58	657.2607966000005	alternation	13		24	658.3655437000007	0.1999986999999237
58	657.4607953000004	alternation	14		23	658.5655424000006	0.19341950000034558
58	657.6542148000008	alternation	15		24	658.7589619000009	0.19997149999926478
58	657.8541863	alternation	16		24	658.9589334000002	0.19995980000021518
58	658.0541461000003	alternation	17		24	659.1588932000004	0.2000188000001799
58	658.2541649000004	alternation	18		24	659.3589120000006	0.2000054000000091
58	658.4541703000004	alternation	19		25	659.5589174000006	0.206589399999757
58	658.6607597000002	alternation	20		24	659.7655068000004	0.200025099999948
58	658.8607848000001	alternation	21		24	659.9655319000003	0.19995490000019345
58	659.0607397000003	alternation	22		24	660.1654868000005	0.200002399999903
58	659.2607421000002	alternation	23		24	660.3654892000004	0.19999340000049415
58	659.4607355000007	alternation	24		24	660.5654826000009	0.2000029999999242
58	659.6607385000007	alternation	25		24	660.7654856000008	0.19998990000021877
58	659.8607284000009	alternation	26		24	660.965475500001	0.20003059999999095
58	660.0607590000009	alternation	27		24	661.165506100001	0.19995039999957953
58	660.2607094000005	alternation	28		23	661.3654565000006	0.1934056000000055
58	660.4541150000005	alternation	29		24	661.5588621000006	0.20004690000041592
58	660.6541619000009	alternation	30		24	661.758909000001	0.1999558999996225
58	660.8541178000005	alternation	31		24	661.9588649000007	0.19996720000017376
58	661.0540850000007	alternation	32		24	662.1588321000008	0.19999670000015612
58	661.2540817000008	alternation	33		24	662.358828800001	0.20003839999935735
58	661.4541201000002	alternation	34		10	662.5588672000003	0.08331820000057633
58	661.5209846000007	response	34	space		662.6257317000009	
59	661.5374383000008	alternation	0		25	662.6421854000009	0.20659410000007483
59	661.7440324000008	alternation	1		24	662.848779500001	0.19996879999962403
59	661.9440012000005	alternation	2		24	663.0487483000006	0.2000225000001592
59	662.1440237000006	alternation	3		24	663.2487708000008	0.19994479999968462
59	662.3439685000003	alternation	4		24	663.4487156000005	0.20004320000043663
59	662.5440117000007	alternation	5		24	663.6487588000009	0.1999465999997483
59	662.7439583000005	alternation	6		24	663.8487054000007	0.19998599999962607
59	662.9439443000001	alternation	7		24	664.0486914000003	0.20001350000075035
59	663.1439578000009	alternation	8		24	664.248704900001	0.1999867999993512
59	663.3439446000002	alternation	9		24	664.4486917000004	0.20175130000006902
59	663.5456959000003	alternation	10		24	664.6504430000005	0.20001529999990453
59	663.7457112000002	alternation	11		24	664.8504583000004	0.19994880000012927
59	663.9456600000003	alternation	12		24	665.0504071000005	0.2000158000000738
59	664.1456758000004	alternation	13		24	665.2504229000006	0.19996979999996256
59	664.3456456000004	alternation	14		24	665.4503927000005	0.198264200000267
59	664.5439098000006	alternation	15		15	665.6486569000008	0.2416641999998319
59	664.7855740000005	alternation	16		19	665.8903211000006	0.15836169999965932
59	664.9439357000001	alternation	17		24	666.0486828000003	0.19995340000059514
59	665.1438891000007	alternation	18		24	666.2486362000009	0.20002239999939775
59	665.3439115000001	alternation	19		24	666.4486586000003	0.19999950000055833
59	665.5439110000007	alternation	20		24	666.6486581000008	0.19995639999979176
59	665.7438674000005	alternation	21		24	666.8486145000006	0.20004979999976058
59	665.9439172000002	alternation	22		24	667.0486643000004	0.19994240000050922
59	666.1438596000007	alternation	23		24	667.2486067000009	0.20178909999958705
59	666.3456487000003	alternation	24		24	667.4503958000005	0.19993630000044504
59	666.5455850000008	alternation	25		24	667.6503321000009	0.19999299999926734
59	666.745578	alternation	26		24	667.8503251000002	0.2000901999999769
59	666.9456682	alternation	27		24	668.0504153000002	0.1999334000001909
59	667.1456016000002	alternation	28		24	668.2503487000004	0.19825800000035088
59	667.3438596000005	alternation	29		24	668.4486067000007	0.19996220000030007
59	667.5438218000008	alternation	30		24	668.648568900001	0.19999680000000808
59	667.7438186000008	alternation	31		24	668.848565700001	0.20005729999957111
59	667.9438759000004	alternation	32		24	669.0486230000006	0.1999481000002561
59	668.1438240000007	alternation	33		24	669.2485711000008	0.19998500000019703
59	668.3438090000009	alternation	34		24	669.448556100001	0.2000531999992745
59	668.5438622000001	alternation	35		24	669.6486093000003	0.19995800000015151
59	668.7438202000003	alternation	36		24	669.8485673000005	0.19996640000044863
59	668.9437866000007	alternation	37		24	670.0485337000009	0.20172439999987546
59	669.1455110000006	alternation	38		24	670.2502581000008	0.1999921999995422
59	669.3455032000002	alternation	39		24	670.4502503000003	0.20003660000020318
59	669.5455398000004	alternation	40		24	670.6502869000005	0.1999895999997534
59	669.7455294000001	alternation	41		24	670.8502765000003	0.19999319999988074
59	669.9455226	alternation	42		24	671.0502697000002	0.19994860000042536
59	670.1454712000004	alternation	43		24	671.2502183000006	0.19827299999997194
59	670.3437442000004	alternation	44		24	671.4484913000006	0.20005440000022645
59	670.5437986000006	alternation	45		24	671.6485457000008	0.1999175999999352
59	670.7437162000006	alternation	46		24	671.8484633000007	0.20000069999969128
59	670.9437169000003	alternation	47		24	672.0484640000004	0.19999650000045222
59	671.1437134000007	alternation	48		24	672.2484605000009	0.20003349999933562
59	671.3437469	alternation	49		24	672.4484940000002	0.199959100000342
59	671.5437060000004	alternation	50		24	672.6484531000006	0.19997799999964627
59	671.743684	alternation	51		24	672.8484311000002	0.20004170000083832
59	671.9437257000009	alternation	52		24	673.048472800001	0.20169149999946967
59	672.1454172000003	alternation	53		24	673.2501643000005	0.19999209999969025
59	672.3454093	alternation	54		24	673.4501564000002	0.20002890000068874
59	672.5454382000007	alternation	55		24	673.6501853000009	0.1999160999994274
60	672.7453543000001	alternation	0		3	673.8501014000003	0.025116600000728795
60	672.7489288000006	response	0	space		673.8536759000008	
61	672.7704709000009	alternation	0		25	673.875218000001	0.20823919999929785
61	672.9787101000002	alternation	1		24	674.0834572000003	0.19826280000052066
61	673.1769729000007	alternation	2		24	674.2817200000009	0.19999189999998634
61	673.3769648000007	alternation	3		24	674.4817119000008	0.20001140000022133
61	673.5769762000009	alternation	4		24	674.6817233000011	0.1999908999996478
61	673.7769671000005	alternation	5		24	674.8817142000007	0.20004270000026736
61	673.9770098000008	alternation	6		24	675.081756900001	0.19996919999994134
61	674.1769790000008	alternation	7		24	675.2817261000009	0.19996809999975085
61	674.3769471000005	alternation	8		24	675.4816942000007	0.2000159999997777
61	674.5769631000003	alternation	9		24	675.6817102000005	0.19999879999977566
61	674.7769619000001	alternation	10		24	675.8817090000002	0.2017401000002792
61	674.9787020000003	alternation	11		24	676.0834491000005	0.19996330000049056
61	675.1786653000008	alternation	12		24	676.283412400001	0.19999269999971148
61	675.3786580000005	alternation	13		24	676.4834051000007	0.19991849999951228
61	675.5785765	alternation	14		24	676.6833236000002	0.20011620000059338
61	675.7786927000006	alternation	15		24	676.8834398000008	0.1981932999997298
61	675.9768860000004	alternation	16		24	677.0816331000005	0.20007470000018657
61	676.1769607000006	alternation	17		24	677.2817078000007	0.19993259999955626
61	676.3768933000001	alternation	18		24	677.4816404000003	0.19985630000064702
61	676.5767496000008	alternation	19		24	677.6814967000009	0.20015319999947678
61	676.7769028000002	alternation	20		24	677.8816499000004	0.19995710000057443
61	676.9768599000008	alternation	21		24	678.081607000001	0.2000341999992088
61	677.1768941	alternation	22		24	678.2816412000002	0.19996960000025865
61	677.3768637000003	alternation	23		24	678.4816108000005	0.19997500000044965
61	677.5768387000007	alternation	24		24	678.6815858000009	0.20172629999979108
61	677.7785650000005	alternation	25		24	678.8833121000007	0.2000318000000334
61	677.9785968000006	alternation	26		24	679.0833439000007	0.200002399999903
61	678.1785992000005	alternation	27		24	679.2833463000006	0.20005209999999352
61	678.3786513000005	alternation	28		24	679.4833984000006	0.19991829999980837
61	678.5785696000003	alternation	29		24	679.6833167000004	0.1999507000000449
61	678.7785203000003	alternation	30		24	679.8832674000005	0.1999985000002198
61	678.9785188000005	alternation	31		24	680.0832659000007	0.19832810000025347
61	679.1768469000008	alternation	32		24	680.281594000001	0.19994369999949413
61	679.3767906000003	alternation	33		24	680.4815377000004	0.1998235000000932
61	679.5766141000004	alternation	34		24	680.6813612000005	0.20015260000036506
61	679.7767667000007	alternation	35		24	680.8815138000009	0.19999749999988126
61	679.9767642000006	alternation	36		5	681.0815113000008	0.041670999999951164
61	679.996083	response	36	space		681.1008301000002	
62	680.0184352000006	alternation	0		25	681.1231823000007	0.2083519999996497
62	680.2267872000002	alternation	1		24	681.3315343000004	0.1999602000005325
62	680.4267474000007	alternation	2		24	681.5314945000009	0.19997439999951894
62	680.6267218000003	alternation	3		23	681.7314689000004	0.19341960000019753
62	680.8201414000005	alternation	4		24	681.9248885000006	0.19999399999960588
