trial_nr	onset	event_type	phase	response	nr_frames	condition	onset_abs	duration
inst_up_down_1	17.85870560000012	stim	0		1	inst_up_down_1	19.042391800000132	0.008265700000038123
inst_up_down_1	17.86697130000016	stim	1		1	inst_up_down_1	19.05065750000017	0.008396999999831678
inst_up_down_1	17.87536829999999	stim	2		1	inst_up_down_1	19.059054500000002	0.00826750000010179
inst_up_down_1	17.883635800000093	stim	3		1	inst_up_down_1	19.067322000000104	0.008416800000077274
inst_up_down_1	17.89205260000017	stim	4		1	inst_up_down_1	19.07573880000018	0.008326499999839143
inst_up_down_1	17.90037910000001	stim	5		1	inst_up_down_1	19.08406530000002	0.008215100000143138
inst_up_down_1	17.908594200000152	stim	6		1	inst_up_down_1	19.092280400000163	0.008427499999925203
inst_up_down_1	17.917021700000078	stim	7		1	inst_up_down_1	19.10070790000009	0.00822440000001734
inst_up_down_1	17.925246100000095	stim	8		1	inst_up_down_1	19.108932300000106	0.008479600000100618
inst_up_down_1	17.933725700000196	stim	9		1	inst_up_down_1	19.117411900000207	0.008223099999895567
inst_up_down_1	17.94194880000009	stim	10		1	inst_up_down_1	19.125635000000102	0.008359899999959453
inst_up_down_1	17.95030870000005	stim	11		1	inst_up_down_1	19.13399490000006	0.008346000000074127
inst_up_down_1	17.958654700000125	stim	12		1	inst_up_down_1	19.142340900000136	0.008299299999862342
inst_up_down_1	17.966953999999987	stim	13		1	inst_up_down_1	19.150640199999998	0.00844150000011723
inst_up_down_1	17.975395500000104	stim	14		1	inst_up_down_1	19.159081700000115	0.00825299999996787
inst_up_down_1	17.983648500000072	stim	15		1	inst_up_down_1	19.167334700000083	0.008422399999972185
inst_up_down_1	17.992070900000044	stim	16		1	inst_up_down_1	19.175757100000055	0.008198900000024878
inst_up_down_1	18.00026980000007	stim	17		1	inst_up_down_1	19.18395600000008	0.008318800000097326
inst_up_down_1	18.008588600000166	stim	18		1	inst_up_down_1	19.192274800000177	0.00842249999982414
inst_up_down_1	18.01701109999999	stim	19		1	inst_up_down_1	19.2006973	0.00825540000005276
inst_up_down_1	18.025266500000043	stim	20		1	inst_up_down_1	19.208952700000054	0.008451100000002043
inst_up_down_1	18.033717600000045	stim	21		1	inst_up_down_1	19.217403800000056	0.00820160000012038
inst_up_down_1	18.041919200000166	stim	22		1	inst_up_down_1	19.225605400000177	0.008369599999923594
inst_up_down_1	18.05028880000009	stim	23		1	inst_up_down_1	19.2339750000001	0.00832869999999275
inst_up_down_1	18.058617500000082	stim	24		1	inst_up_down_1	19.242303700000093	0.008316500000091764
inst_up_down_1	18.066934000000174	stim	25		1	inst_up_down_1	19.250620200000185	0.008425499999930253
inst_up_down_1	18.075359500000104	stim	26		1	inst_up_down_1	19.259045700000115	0.008243999999876905
inst_up_down_1	18.08360349999998	stim	27		1	inst_up_down_1	19.267289699999992	0.008335600000009435
inst_up_down_1	18.09193909999999	stim	28		1	inst_up_down_1	19.2756253	0.008436700000174824
inst_up_down_1	18.100375800000165	stim	29		1	inst_up_down_1	19.284062000000176	0.008243099999845072
inst_up_down_1	18.10861890000001	stim	30		1	inst_up_down_1	19.29230510000002	0.008406300000160627
inst_up_down_1	18.11702520000017	stim	31		1	inst_up_down_1	19.300711400000182	0.00822640000001229
inst_up_down_1	18.125251600000183	stim	32		1	inst_up_down_1	19.308937800000194	0.008487699999932374
inst_up_down_1	18.133739300000116	stim	33		1	inst_up_down_1	19.317425500000127	0.008198900000024878
inst_up_down_1	18.14193820000014	stim	34		1	inst_up_down_1	19.32562440000015	0.00835929999993823
inst_up_down_1	18.15029750000008	stim	35		1	inst_up_down_1	19.33398370000009	0.008378600000014558
inst_up_down_1	18.158676100000093	stim	36		1	inst_up_down_1	19.342362300000104	0.008258200000000215
inst_up_down_1	18.166934300000094	stim	37		1	inst_up_down_1	19.350620500000105	0.008465099999966696
inst_up_down_1	18.17539940000006	stim	38		1	inst_up_down_1	19.35908560000007	0.00820360000011533
inst_up_down_1	18.183603000000176	stim	39		1	inst_up_down_1	19.367289200000187	0.008314799999880051
inst_up_down_1	18.191917800000056	stim	40		1	inst_up_down_1	19.375604000000067	0.00842200000010962
inst_up_down_1	18.200339800000165	stim	41		1	inst_up_down_1	19.384026000000176	0.008263799999895127
inst_up_down_1	18.20860360000006	stim	42		1	inst_up_down_1	19.39228980000007	0.008433700000068711
inst_up_down_1	18.21703730000013	stim	43		1	inst_up_down_1	19.40072350000014	0.008223499999985506
inst_up_down_1	18.225260800000115	stim	44		1	inst_up_down_1	19.408947000000126	0.008352099999910934
inst_up_down_1	18.233612900000026	stim	45		1	inst_up_down_1	19.417299100000037	0.008302800000137722
inst_up_down_1	18.241915700000163	stim	46		1	inst_up_down_1	19.425601900000174	0.008369700000002922
inst_up_down_1	18.250285400000166	stim	47		1	inst_up_down_1	19.433971600000177	0.008292799999935596
inst_up_down_1	18.258578200000102	stim	48		1	inst_up_down_1	19.442264400000113	0.00838789999988876
inst_up_down_1	18.26696609999999	stim	49		1	inst_up_down_1	19.4506523	0.008418900000151552
inst_up_down_1	18.275385000000142	stim	50		1	inst_up_down_1	19.459071200000153	0.010254300000042349
inst_up_down_1	18.285639300000184	stim	51		1	inst_up_down_1	19.469325500000195	0.009618099999897822
inst_up_down_1	18.295257400000082	stim	52		1	inst_up_down_1	19.478943600000093	0.00573989999998048
inst_up_down_1	18.300997300000063	stim	53		1	inst_up_down_1	19.484683500000074	0.008928499999910855
inst_up_down_1	18.309925799999974	stim	54		1	inst_up_down_1	19.493611999999985	0.008347400000047855
inst_up_down_1	18.31827320000002	stim	55		1	inst_up_down_1	19.501959400000032	0.008252800000036586
inst_up_down_1	18.326526000000058	stim	56		1	inst_up_down_1	19.51021220000007	0.00830139999993662
inst_up_down_1	18.334827399999995	stim	57		1	inst_up_down_1	19.518513600000006	0.008328600000140796
inst_up_down_1	18.343156000000135	stim	58		1	inst_up_down_1	19.526842200000146	0.008372199999939767
inst_up_down_1	18.351528200000075	stim	59		1	inst_up_down_1	19.535214400000086	0.008322500000076616
inst_up_down_1	18.359850700000152	stim	60		1	inst_up_down_1	19.543536900000163	0.008520500000031461
inst_up_down_1	18.368371200000183	stim	61		1	inst_up_down_1	19.552057400000194	0.0083266999999978
inst_up_down_1	18.37669790000018	stim	62		1	inst_up_down_1	19.560384100000192	0.008154499999818654
inst_up_down_1	18.3848524	stim	63		1	inst_up_down_1	19.56853860000001	0.00830990000008569
inst_up_down_1	18.393162300000085	stim	64		1	inst_up_down_1	19.576848500000096	0.008348500000010972
inst_up_down_1	18.401510800000096	stim	65		1	inst_up_down_1	19.585197000000107	0.008310599999958868
inst_up_down_1	18.409821400000055	stim	66		1	inst_up_down_1	19.593507600000066	0.008459099999981845
inst_up_down_1	18.418280500000037	stim	67		1	inst_up_down_1	19.601966700000048	0.008226700000022902
inst_up_down_1	18.42650720000006	stim	68		1	inst_up_down_1	19.61019340000007	0.00831289999996443
inst_up_down_1	18.434820100000024	stim	69		1	inst_up_down_1	19.618506300000035	0.00832100000002356
inst_up_down_1	18.443141100000048	stim	70		1	inst_up_down_1	19.62682730000006	0.00833039999997709
inst_up_down_1	18.451471500000025	stim	71		1	inst_up_down_1	19.635157700000036	0.008486800000127914
inst_up_down_1	18.459958300000153	stim	72		1	inst_up_down_1	19.643644500000164	0.008193299999902592
inst_up_down_1	18.468151600000056	stim	73		1	inst_up_down_1	19.651837800000067	0.00836129999993318
inst_up_down_1	18.47651289999999	stim	74		1	inst_up_down_1	19.6601991	0.008334000000104425
inst_up_down_1	18.484846900000093	stim	75		1	inst_up_down_1	19.668533100000104	0.008306400000037684
inst_up_down_1	18.49315330000013	stim	76		1	inst_up_down_1	19.676839500000142	0.008507000000008702
inst_up_down_1	18.50166030000014	stim	77		1	inst_up_down_1	19.68534650000015	0.008168800000021292
inst_up_down_1	18.50982910000016	stim	78		1	inst_up_down_1	19.693515300000172	0.008494999999811625
inst_up_down_1	18.518324099999973	stim	79		1	inst_up_down_1	19.702010299999984	0.008143600000039442
inst_up_down_1	18.526467700000012	stim	80		1	inst_up_down_1	19.710153900000023	0.008380400000078225
inst_up_down_1	18.53484810000009	stim	81		1	inst_up_down_1	19.7185343000001	0.008308700000043245
inst_up_down_1	18.543156800000133	stim	82		1	inst_up_down_1	19.726843000000144	0.00834050000003117
inst_up_down_1	18.551497300000165	stim	83		1	inst_up_down_1	19.735183500000176	0.008458000000018728
inst_up_down_1	18.559955300000183	stim	84		1	inst_up_down_1	19.743641500000194	0.008231699999896591
inst_up_down_1	18.56818700000008	stim	85		1	inst_up_down_1	19.75187320000009	0.008117999999967651
inst_up_down_1	18.576305000000048	stim	86		1	inst_up_down_1	19.75999120000006	0.0054843000000346365
inst_up_down_1	18.581789300000082	stim	87		1	inst_up_down_1	19.765475500000093	0.008825599999909173
inst_up_down_1	18.59061489999999	stim	88		1	inst_up_down_1	19.774301100000002	0.008233900000050198
inst_up_down_1	18.59884880000004	stim	89		1	inst_up_down_1	19.782535000000053	0.008274700000129087
inst_up_down_1	18.60712350000017	stim	90		1	inst_up_down_1	19.79080970000018	0.008350299999847266
inst_up_down_1	18.615473800000018	stim	91		1	inst_up_down_1	19.79916000000003	0.008392200000116645
inst_up_down_1	18.623866000000135	stim	92		1	inst_up_down_1	19.807552200000146	0.008269400000017413
inst_up_down_1	18.632135400000152	stim	93		1	inst_up_down_1	19.815821600000163	0.00846400000000358
inst_up_down_1	18.640599400000156	stim	94		1	inst_up_down_1	19.824285600000167	0.00820490000000973
inst_up_down_1	18.648804300000165	stim	95		1	inst_up_down_1	19.832490500000176	0.00831889999994928
inst_up_down_1	18.657123200000115	stim	96		1	inst_up_down_1	19.840809400000126	0.008346800000026633
inst_up_down_1	18.66547000000014	stim	97		1	inst_up_down_1	19.849156200000152	0.008346299999857365
inst_up_down_1	18.6738163	stim	98		1	inst_up_down_1	19.85750250000001	0.008438800000021729
inst_up_down_1	18.68225510000002	stim	99		1	inst_up_down_1	19.86594130000003	0.008210100000042075
inst_up_down_1	18.690465200000062	stim	100		1	inst_up_down_1	19.874151400000073	0.008342000000084226
inst_up_down_1	18.698807200000147	stim	101		1	inst_up_down_1	19.882493400000158	0.008324499999844193
inst_up_down_1	18.70713169999999	stim	102		1	inst_up_down_1	19.890817900000002	0.008433100000047489
inst_up_down_1	18.71556480000004	stim	103		1	inst_up_down_1	19.89925100000005	0.008348000000069078
inst_up_down_1	18.723912800000107	stim	104		1	inst_up_down_1	19.90759900000012	0.008217399999921327
inst_up_down_1	18.73213020000003	stim	105		1	inst_up_down_1	19.91581640000004	0.00832910000008269
inst_up_down_1	18.74045930000011	stim	106		1	inst_up_down_1	19.924145500000122	0.008328599999913422
inst_up_down_1	18.748787900000025	stim	107		1	inst_up_down_1	19.932474100000036	0.008334999999988213
inst_up_down_1	18.757122900000013	stim	108		1	inst_up_down_1	19.940809100000024	0.00841790000004039
inst_up_down_1	18.765540800000053	stim	109		1	inst_up_down_1	19.949227000000064	0.008244000000104279
inst_up_down_1	18.773784800000158	stim	110		1	inst_up_down_1	19.95747100000017	0.008472399999845948
inst_up_down_1	18.782257200000004	stim	111		1	inst_up_down_1	19.965943400000015	0.008203500000036001
inst_up_down_1	18.79046070000004	stim	112		1	inst_up_down_1	19.97414690000005	0.008343599999989237
inst_up_down_1	18.79880430000003	stim	113		1	inst_up_down_1	19.98249050000004	0.008323900000050344
inst_up_down_1	18.80712820000008	stim	114		1	inst_up_down_1	19.99081440000009	0.008333700000093813
inst_up_down_1	18.815461900000173	stim	115		1	inst_up_down_1	19.999148100000184	0.008474900000010166
inst_up_down_1	18.823936800000183	stim	116		1	inst_up_down_1	20.007623000000194	0.008186099999875296
inst_up_down_1	18.83212290000006	stim	117		1	inst_up_down_1	20.01580910000007	0.008335700000088764
inst_up_down_1	18.840458600000147	stim	118		1	inst_up_down_1	20.02414480000016	0.008330799999839655
inst_up_down_1	18.848789399999987	stim	119		1	inst_up_down_1	20.032475599999998	0.00834250000002612
inst_up_down_1	18.857131900000013	stim	120		1	inst_up_down_1	20.040818100000024	0.008326399999987188
inst_up_down_1	18.8654583	stim	121		1	inst_up_down_1	20.04914450000001	0.008321799999976065
inst_up_down_1	18.873780099999976	stim	122		1	inst_up_down_1	20.057466299999987	0.008368400000108522
inst_up_down_1	18.882148500000085	stim	123		1	inst_up_down_1	20.065834700000096	0.008350199999995311
inst_up_down_1	18.89049870000008	stim	124		1	inst_up_down_1	20.07418490000009	0.008292900000014924
inst_up_down_1	18.898791600000095	stim	125		1	inst_up_down_1	20.082477800000106	0.0083319999998821
inst_up_down_1	18.907123599999977	stim	126		1	inst_up_down_1	20.090809799999988	0.008334000000104425
inst_up_down_1	18.91545760000008	stim	127		1	inst_up_down_1	20.099143800000093	0.008474299999988943
inst_up_down_1	18.92393190000007	stim	128		1	inst_up_down_1	20.10761810000008	0.008192900000040026
inst_up_down_1	18.93212480000011	stim	129		1	inst_up_down_1	20.11581100000012	0.008330800000067029
inst_up_down_1	18.940455600000178	stim	130		1	inst_up_down_1	20.12414180000019	0.00834220000001551
inst_up_down_1	18.948797800000193	stim	131		1	inst_up_down_1	20.132484000000204	0.008325799999965966
inst_up_down_1	18.95712360000016	stim	132		1	inst_up_down_1	20.14080980000017	0.00845379999987017
inst_up_down_1	18.96557740000003	stim	133		1	inst_up_down_1	20.14926360000004	0.008268900000075519
inst_up_down_1	18.973846300000105	stim	134		1	inst_up_down_1	20.157532500000116	0.008281200000055833
inst_up_down_1	18.98212750000016	stim	135		1	inst_up_down_1	20.16581370000017	0.008331199999929595
inst_up_down_1	18.99045870000009	stim	136		1	inst_up_down_1	20.1741449000001	0.008332299999892712
inst_up_down_1	18.998790999999983	stim	137		1	inst_up_down_1	20.182477199999994	0.008326200000055906
inst_up_down_1	19.00711720000004	stim	138		1	inst_up_down_1	20.19080340000005	0.008332699999982651
inst_up_down_1	19.01544990000002	stim	139		1	inst_up_down_1	20.199136100000032	0.008474700000078883
inst_up_down_1	19.0239246000001	stim	140		1	inst_up_down_1	20.20761080000011	0.00819920000003549
inst_up_down_1	19.032123800000136	stim	141		1	inst_up_down_1	20.215810000000147	0.008335900000020047
inst_up_down_1	19.040459700000156	stim	142		1	inst_up_down_1	20.224145900000167	0.008322399999997288
inst_up_down_1	19.048782100000153	stim	143		1	inst_up_down_1	20.232468300000164	0.008333499999935157
inst_up_down_1	19.05711560000009	stim	144		1	inst_up_down_1	20.2408018000001	0.008465099999966696
inst_up_down_1	19.065580700000055	stim	145		1	inst_up_down_1	20.249266900000066	0.008205800000041563
inst_up_down_1	19.073786500000097	stim	146		1	inst_up_down_1	20.257472700000108	0.008373899999924106
inst_up_down_1	19.08216040000002	stim	147		1	inst_up_down_1	20.26584660000003	0.008281600000145772
inst_up_down_1	19.090442000000166	stim	148		1	inst_up_down_1	20.274128200000177	0.008333300000003874
inst_up_down_1	19.09877530000017	stim	149		1	inst_up_down_1	20.28246150000018	0.008425499999930253
inst_up_down_1	19.1072008000001	stim	150		1	inst_up_down_1	20.29088700000011	0.008231699999896591
inst_up_down_1	19.115432499999997	stim	151		1	inst_up_down_1	20.299118700000008	0.008423700000093959
inst_up_down_1	19.12385620000009	stim	152		1	inst_up_down_1	20.307542400000102	0.008387099999936254
inst_up_down_1	19.132243300000027	stim	153		1	inst_up_down_1	20.31592950000004	0.008181800000102157
inst_up_down_1	19.14042510000013	stim	154		1	inst_up_down_1	20.32411130000014	0.008340699999962453
inst_up_down_1	19.148765800000092	stim	155		1	inst_up_down_1	20.332452000000103	0.008384700000078738
inst_up_down_1	19.15715050000017	stim	156		1	inst_up_down_1	20.34083670000018	0.008421799999950963
inst_up_down_1	19.16557230000012	stim	157		1	inst_up_down_1	20.349258500000133	0.008280799999965893
inst_up_down_1	19.173853100000088	stim	158		1	inst_up_down_1	20.3575393000001	0.008242899999913789
inst_up_down_1	19.182096	stim	159		1	inst_up_down_1	20.365782200000012	0.008335800000168092
inst_up_down_1	19.19043180000017	stim	160		1	inst_up_down_1	20.37411800000018	0.008346099999926082
inst_up_down_1	19.198777900000096	stim	161		1	inst_up_down_1	20.382464100000107	0.00844680000000153
inst_up_down_1	19.207224700000097	stim	162		1	inst_up_down_1	20.390910900000108	0.008201699999972334
inst_up_down_1	19.21542640000007	stim	163		1	inst_up_down_1	20.39911260000008	0.008327700000108962
inst_up_down_1	19.22375410000018	stim	164		1	inst_up_down_1	20.40744030000019	0.008414899999934278
inst_up_down_1	19.232169000000113	stim	165		1	inst_up_down_1	20.415855200000124	0.008256699999947159
inst_up_down_1	19.24042570000006	stim	166		1	inst_up_down_1	20.42411190000007	0.008447599999954036
inst_up_down_1	19.248873300000014	stim	167		1	inst_up_down_1	20.432559500000025	0.008222500000101718
inst_up_down_1	19.257095800000116	stim	168		1	inst_up_down_1	20.440782000000127	0.008339499999920008
inst_up_down_1	19.265435300000036	stim	169		1	inst_up_down_1	20.449121500000047	0.008323600000039733
inst_up_down_1	19.273758900000075	stim	170		1	inst_up_down_1	20.457445100000086	0.008336200000030658
inst_up_down_1	19.282095100000106	stim	171		1	inst_up_down_1	20.465781300000117	0.0083498999999847
inst_up_down_1	19.29044500000009	stim	172		1	inst_up_down_1	20.4741312000001	0.008319499999970503
inst_up_down_1	19.29876450000006	stim	173		1	inst_up_down_1	20.482450700000072	0.008457299999918177
inst_up_down_1	19.30722179999998	stim	174		1	inst_up_down_1	20.49090799999999	0.008201000000099157
inst_up_down_1	19.31542280000008	stim	175		1	inst_up_down_1	20.49910900000009	0.008331900000030146
inst_up_down_1	19.32375470000011	stim	176		1	inst_up_down_1	20.50744090000012	0.00848679999990054
inst_up_down_1	19.33224150000001	stim	177		1	inst_up_down_1	20.51592770000002	0.008187000000134503
inst_up_down_1	19.340428500000144	stim	178		1	inst_up_down_1	20.524114700000155	0.008460900000045513
inst_up_down_1	19.34888940000019	stim	179		1	inst_up_down_1	20.5325756000002	0.008196099999850048
inst_up_down_1	19.35708550000004	stim	180		1	inst_up_down_1	20.54077170000005	0.008341800000152944
inst_up_down_1	19.365427300000192	stim	181		1	inst_up_down_1	20.549113500000203	0.008471099999951548
inst_up_down_1	19.373898400000144	stim	182		1	inst_up_down_1	20.557584600000155	0.008191099999976359
inst_up_down_1	19.38208950000012	stim	183		1	inst_up_down_1	20.56577570000013	0.008439799999905517
inst_up_down_1	19.390529300000026	stim	184		1	inst_up_down_1	20.574215500000037	0.00823690000015631
inst_up_down_1	19.398766200000182	stim	185		1	inst_up_down_1	20.582452400000193	0.008319499999970503
inst_up_down_1	19.407085700000152	stim	186		1	inst_up_down_1	20.590771900000163	0.008446199999980308
inst_up_down_1	19.415531900000133	stim	187		1	inst_up_down_1	20.599218100000144	0.008225099999890517
inst_up_down_1	19.423757000000023	stim	188		1	inst_up_down_1	20.607443200000034	0.008400200000096447
inst_up_down_1	19.43215720000012	stim	189		1	inst_up_down_1	20.61584340000013	0.008252500000025975
inst_up_down_1	19.440409700000146	stim	190		1	inst_up_down_1	20.624095900000157	0.008504899999934423
inst_up_down_1	19.44891460000008	stim	191		1	inst_up_down_1	20.63260080000009	0.008170699999936915
inst_up_down_1	19.457085300000017	stim	192		1	inst_up_down_1	20.640771500000028	0.008341299999983676
inst_up_down_1	19.4654266	stim	193		1	inst_up_down_1	20.64911280000001	0.008399199999985285
inst_up_down_1	19.473825799999986	stim	194		1	inst_up_down_1	20.657511999999997	0.008265700000038123
inst_up_down_1	19.482091500000024	stim	195		1	inst_up_down_1	20.665777700000035	0.008472200000142038
inst_up_down_1	19.490563700000166	stim	196		1	inst_up_down_1	20.674249900000177	0.008199699999977383
inst_up_down_1	19.498763400000144	stim	197		1	inst_up_down_1	20.682449600000155	0.00832130000003417
inst_up_down_1	19.507084700000178	stim	198		1	inst_up_down_1	20.69077090000019	0.00840669999979582
inst_up_down_1	19.515491399999974	stim	199		1	inst_up_down_1	20.699177599999985	0.008267400000022462
inst_up_down_1	19.523758799999996	stim	200		1	inst_up_down_1	20.707445000000007	0.008480299999973795
inst_up_down_1	19.53223909999997	stim	201		1	inst_up_down_1	20.71592529999998	0.008231800000203293
inst_up_down_1	19.540470900000173	stim	202		1	inst_up_down_1	20.724157100000184	0.008284099999855243
inst_up_down_1	19.54875500000003	stim	203		1	inst_up_down_1	20.73244120000004	0.008423700000093959
inst_up_down_1	19.557178700000122	stim	204		1	inst_up_down_1	20.740864900000133	0.008246599999893078
inst_up_down_1	19.565425300000015	stim	205		1	inst_up_down_1	20.749111500000026	0.008454400000118767
inst_up_down_1	19.573879700000134	stim	206		1	inst_up_down_1	20.757565900000145	0.00820490000000973
inst_up_down_1	19.582084600000144	stim	207		1	inst_up_down_1	20.765770800000155	0.008471500000041488
inst_up_down_1	19.590556100000185	stim	208		1	inst_up_down_1	20.774242300000196	0.008198499999934938
inst_up_down_1	19.59875460000012	stim	209		1	inst_up_down_1	20.78244080000013	0.008329099999855316
inst_up_down_1	19.607083699999976	stim	210		1	inst_up_down_1	20.790769899999987	0.00844080000001668
inst_up_down_1	19.615524499999992	stim	211		1	inst_up_down_1	20.799210700000003	0.00822920000018712
inst_up_down_1	19.62375370000018	stim	212		1	inst_up_down_1	20.80743990000019	0.008478799999920739
inst_up_down_1	19.6322325000001	stim	213		1	inst_up_down_1	20.81591870000011	0.008182900000065274
inst_up_down_1	19.640415400000165	stim	214		1	inst_up_down_1	20.824101600000176	0.008339499999920008
inst_up_down_1	19.648754900000085	stim	215		1	inst_up_down_1	20.832441100000096	0.008398599999964063
inst_up_down_1	19.65715350000005	stim	216		1	inst_up_down_1	20.84083970000006	0.008270600000059858
inst_up_down_1	19.66542410000011	stim	217		1	inst_up_down_1	20.84911030000012	0.008405099999890808
inst_up_down_1	19.6738292	stim	218		1	inst_up_down_1	20.85751540000001	0.008261000000175045
inst_up_down_1	19.682090200000175	stim	219		1	inst_up_down_1	20.865776400000186	0.00831649999986439
inst_up_down_1	19.69040670000004	stim	220		1	inst_up_down_1	20.87409290000005	0.008496899999954621
inst_up_down_1	19.698903599999994	stim	221		1	inst_up_down_1	20.882589800000005	0.008175300000175412
inst_up_down_1	19.70707890000017	stim	222		1	inst_up_down_1	20.89076510000018	0.00849489999995967
inst_up_down_1	19.71557380000013	stim	223		1	inst_up_down_1	20.89926000000014	0.008177299999942989
inst_up_down_1	19.723751100000072	stim	224		1	inst_up_down_1	20.907437300000083	0.008503600000040024
inst_up_down_1	19.732254700000112	stim	225		1	inst_up_down_1	20.915940900000123	0.008247100000062346
inst_up_down_1	19.740501800000175	stim	226		1	inst_up_down_1	20.924188000000186	0.00825329999997848
inst_up_down_1	19.748755100000153	stim	227		1	inst_up_down_1	20.932441300000164	0.008414399999992384
inst_up_down_1	19.757169500000145	stim	228		1	inst_up_down_1	20.940855700000157	0.008245399999850633
inst_up_down_1	19.765414899999996	stim	229		1	inst_up_down_1	20.949101100000007	0.008446000000049025
inst_up_down_1	19.773860900000045	stim	230		1	inst_up_down_1	20.957547100000056	0.008282900000040172
inst_up_down_1	19.782143800000085	stim	231		1	inst_up_down_1	20.965830000000096	0.008265299999948184
inst_up_down_1	19.790409100000034	stim	232		1	inst_up_down_1	20.974095300000045	0.00843540000005305
inst_up_down_1	19.798844500000087	stim	233		1	inst_up_down_1	20.982530700000098	0.008228200000075958
inst_up_down_1	19.807072700000163	stim	234		1	inst_up_down_1	20.990758900000174	0.008452799999986382
inst_up_down_1	19.81552550000015	stim	235		1	inst_up_down_1	20.99921170000016	0.008215599999857659
inst_up_down_1	19.823741100000007	stim	236		1	inst_up_down_1	21.007427300000018	0.008356300000059491
inst_up_down_1	19.832097400000066	stim	237		1	inst_up_down_1	21.015783600000077	0.008384499999920081
inst_up_down_1	19.840481899999986	stim	238		1	inst_up_down_1	21.024168099999997	0.008257200000116427
inst_up_down_1	19.848739100000103	stim	239		1	inst_up_down_1	21.032425300000114	0.00833650000004127
inst_up_down_1	19.857075600000144	stim	240		1	inst_up_down_1	21.040761800000155	0.008333900000025096
inst_up_down_1	19.86540950000017	stim	241		1	inst_up_down_1	21.04909570000018	0.008446899999853485
inst_up_down_1	19.873856400000022	stim	242		1	inst_up_down_1	21.057542600000033	0.008221300000059273
inst_up_down_1	19.88207770000008	stim	243		1	inst_up_down_1	21.065763900000093	0.008318500000086715
inst_up_down_1	19.89039620000017	stim	244		1	inst_up_down_1	21.07408240000018	0.008407899999838264
inst_up_down_1	19.898804100000007	stim	245		1	inst_up_down_1	21.082490300000018	0.00829240000007303
inst_up_down_1	19.90709650000008	stim	246		1	inst_up_down_1	21.09078270000009	0.008418500000061613
inst_up_down_1	19.91551500000014	stim	247		1	inst_up_down_1	21.099201200000152	0.008230499999854146
inst_up_down_1	19.923745499999995	stim	248		1	inst_up_down_1	21.107431700000006	0.008332400000199414
inst_up_down_1	19.932077900000195	stim	249		1	inst_up_down_1	21.115764100000206	0.008333499999935157
inst_up_down_1	19.94041140000013	stim	250		1	inst_up_down_1	21.12409760000014	0.008341100000052393
inst_up_down_1	19.948752500000182	stim	251		1	inst_up_down_1	21.132438700000193	0.008320499999854292
inst_up_down_1	19.957073000000037	stim	252		1	inst_up_down_1	21.140759200000048	0.008337700000083714
inst_up_down_1	19.96541070000012	stim	253		1	inst_up_down_1	21.14909690000013	0.008369500000071639
inst_up_down_1	19.973780200000192	stim	254		1	inst_up_down_1	21.157466400000203	0.00834949999989476
inst_up_down_1	19.982129700000087	stim	255		1	inst_up_down_1	21.165815900000098	0.008300799999915398
inst_up_down_1	19.990430500000002	stim	256		1	inst_up_down_1	21.174116700000013	0.00830949999999575
inst_up_down_1	19.998739999999998	stim	257		1	inst_up_down_1	21.18242620000001	0.008434300000089934
inst_up_down_1	20.007174300000088	stim	258		1	inst_up_down_1	21.1908605000001	0.008357899999964502
inst_up_down_1	20.015532200000052	stim	259		1	inst_up_down_1	21.199218400000063	0.008202299999993556
inst_up_down_1	20.023734500000046	stim	260		1	inst_up_down_1	21.207420700000057	0.00833920000013677
inst_up_down_1	20.032073700000183	stim	261		1	inst_up_down_1	21.215759900000194	0.008322799999859853
inst_up_down_1	20.040396500000043	stim	262		1	inst_up_down_1	21.224082700000054	0.008345200000121622
inst_up_down_1	20.048741700000164	stim	263		1	inst_up_down_1	21.232427900000175	0.008427799999935814
inst_up_down_1	20.0571695000001	stim	264		1	inst_up_down_1	21.24085570000011	0.008228799999869807
inst_up_down_1	20.06539829999997	stim	265		1	inst_up_down_1	21.24908449999998	0.00834250000002612
inst_up_down_1	20.073740799999996	stim	266		1	inst_up_down_1	21.257427000000007	0.00833039999997709
inst_up_down_1	20.082071199999973	stim	267		1	inst_up_down_1	21.265757399999984	0.00833150000016758
inst_up_down_1	20.09040270000014	stim	268		1	inst_up_down_1	21.27408890000015	0.00833650000004127
inst_up_down_1	20.098739200000182	stim	269		1	inst_up_down_1	21.282425400000193	0.00835689999985334
inst_up_down_1	20.107096100000035	stim	270		1	inst_up_down_1	21.290782300000046	0.008453800000097544
inst_up_down_1	20.115549900000133	stim	271		1	inst_up_down_1	21.299236100000144	0.008180300000049101
inst_up_down_1	20.123730200000182	stim	272		1	inst_up_down_1	21.307416400000193	0.008338199999798235
inst_up_down_1	20.13206839999998	stim	273		1	inst_up_down_1	21.31575459999999	0.008400000000165164
inst_up_down_1	20.140468400000145	stim	274		1	inst_up_down_1	21.324154600000156	0.008359199999858902
inst_up_down_1	20.148827600000004	stim	275		1	inst_up_down_1	21.332513800000015	0.00835070000016458
inst_up_down_1	20.15717830000017	stim	276		1	inst_up_down_1	21.34086450000018	0.008220399999800065
inst_up_down_1	20.16539869999997	stim	277		1	inst_up_down_1	21.34908489999998	0.008335600000009435
inst_up_down_1	20.17373429999998	stim	278		1	inst_up_down_1	21.35742049999999	0.008499300000039511
inst_up_down_1	20.182233600000018	stim	279		1	inst_up_down_1	21.36591980000003	0.00816120000013143
inst_up_down_1	20.19039480000015	stim	280		1	inst_up_down_1	21.37408100000016	0.008421999999882246
inst_up_down_1	20.19881680000003	stim	281		1	inst_up_down_1	21.382503000000042	0.008246600000120452
inst_up_down_1	20.207063400000152	stim	282		1	inst_up_down_1	21.390749600000163	0.008346999999957916
inst_up_down_1	20.21541040000011	stim	283		1	inst_up_down_1	21.39909660000012	0.008315199999969991
inst_up_down_1	20.22372560000008	stim	284		1	inst_up_down_1	21.40741180000009	0.008348500000010972
inst_up_down_1	20.23207410000009	stim	285		1	inst_up_down_1	21.415760300000102	0.008387500000026193
inst_up_down_1	20.240461600000117	stim	286		1	inst_up_down_1	21.424147800000128	0.008271899999954258
inst_up_down_1	20.24873350000007	stim	287		1	inst_up_down_1	21.432419700000082	0.00845619999995506
inst_up_down_1	20.257189700000026	stim	288		1	inst_up_down_1	21.440875900000037	0.008200900000019828
inst_up_down_1	20.265390600000046	stim	289		1	inst_up_down_1	21.449076800000057	0.00833920000013677
inst_up_down_1	20.273729800000183	stim	290		1	inst_up_down_1	21.457416000000194	0.008333999999877051
inst_up_down_1	20.28206380000006	stim	291		1	inst_up_down_1	21.46575000000007	0.00832710000008774
inst_up_down_1	20.290390900000148	stim	292		1	inst_up_down_1	21.47407710000016	0.008451299999933326
inst_up_down_1	20.29884220000008	stim	293		1	inst_up_down_1	21.482528400000092	0.008220899999969333
inst_up_down_1	20.30706310000005	stim	294		1	inst_up_down_1	21.49074930000006	0.00836739999999736
inst_up_down_1	20.315430500000048	stim	295		1	inst_up_down_1	21.49911670000006	0.00829569999996238
inst_up_down_1	20.32372620000001	stim	296		1	inst_up_down_1	21.50741240000002	0.0083446000001004
inst_up_down_1	20.33207080000011	stim	297		1	inst_up_down_1	21.51575700000012	0.008401000000048953
inst_up_down_1	20.34047180000016	stim	298		1	inst_up_down_1	21.52415800000017	0.008254299999862269
inst_up_down_1	20.34872610000002	stim	299		1	inst_up_down_1	21.532412300000033	0.008709500000122716
inst_up_down_1	20.357435600000144	stim	300		1	inst_up_down_1	21.541121800000155	0.007962700000007317
inst_up_down_1	20.36539830000015	stim	301		1	inst_up_down_1	21.549084500000163	0.008333600000014485
inst_up_down_1	20.373731900000166	stim	302		1	inst_up_down_1	21.557418100000177	0.008407199999965087
inst_up_down_1	20.38213910000013	stim	303		1	inst_up_down_1	21.565825300000142	0.009404299999914656
inst_up_down_1	20.391543400000046	stim	304		1	inst_up_down_1	21.575229600000057	0.00882410000008349
inst_up_down_1	20.40036750000013	stim	305		1	inst_up_down_1	21.58405370000014	0.00818739999999707
inst_up_down_1	20.408554900000127	stim	306		1	inst_up_down_1	21.592241100000138	0.008358099999895785
inst_up_down_1	20.416913000000022	stim	307		1	inst_up_down_1	21.600599200000033	0.008334300000115036
inst_up_down_1	20.425247300000137	stim	308		1	inst_up_down_1	21.60893350000015	0.008336200000030658
inst_up_down_1	20.433583500000168	stim	309		1	inst_up_down_1	21.61726970000018	0.008381499999813968
inst_up_down_1	20.441964999999982	stim	310		1	inst_up_down_1	21.625651199999993	0.008284400000093228
inst_up_down_1	20.450249400000075	stim	311		1	inst_up_down_1	21.633935600000086	0.008434399999941888
inst_up_down_1	20.458683800000017	stim	312		1	inst_up_down_1	21.642370000000028	0.008229199999959746
inst_up_down_1	20.466912999999977	stim	313		1	inst_up_down_1	21.650599199999988	0.008329400000093301
inst_up_down_1	20.47524240000007	stim	314		1	inst_up_down_1	21.65892860000008	0.008343499999909909
inst_up_down_1	20.48358589999998	stim	315		1	inst_up_down_1	21.66727209999999	0.00831770000013421
inst_up_down_1	20.491903600000114	stim	316		1	inst_up_down_1	21.675589800000125	0.00844649999999092
inst_up_down_1	20.500350100000105	stim	317		1	inst_up_down_1	21.684036300000116	0.008207800000036514
inst_up_down_1	20.50855790000014	stim	318		1	inst_up_down_1	21.692244100000153	0.008391200000005483
inst_up_down_1	20.516949100000147	stim	319		1	inst_up_down_1	21.700635300000158	0.008277700000007826
inst_up_down_1	20.525226800000155	stim	320		1	inst_up_down_1	21.708913000000166	0.008303299999852243
inst_up_down_1	20.533530100000007	stim	321		1	inst_up_down_1	21.71721630000002	0.008496100000002116
inst_up_down_1	20.54202620000001	stim	322		1	inst_up_down_1	21.72571240000002	0.008303700000169556
inst_up_down_1	20.55032990000018	stim	323		1	inst_up_down_1	21.73401610000019	0.008310699999810822
inst_up_down_1	20.55864059999999	stim	324		1	inst_up_down_1	21.7423268	0.008261200000106328
inst_up_down_1	20.566901800000096	stim	325		1	inst_up_down_1	21.750588000000107	0.008322899999939182
inst_up_down_1	20.575224700000035	stim	326		1	inst_up_down_1	21.758910900000046	0.008421400000088397
inst_up_down_1	20.583646100000124	stim	327		1	inst_up_down_1	21.767332300000135	0.00825370000006842
inst_up_down_1	20.591899800000192	stim	328		1	inst_up_down_1	21.775586000000203	0.008436199999778182
inst_up_down_1	20.60033599999997	stim	329		1	inst_up_down_1	21.78402219999998	0.008203000000094107
inst_up_down_1	20.608539000000064	stim	330		1	inst_up_down_1	21.792225200000075	0.008358999999927619
inst_up_down_1	20.616897999999992	stim	331		1	inst_up_down_1	21.800584200000003	0.008316400000012436
inst_up_down_1	20.625214400000004	stim	332		1	inst_up_down_1	21.808900600000015	0.008354800000006435
inst_up_down_1	20.63356920000001	stim	333		1	inst_up_down_1	21.817255400000022	0.0084321000001637
inst_up_down_1	20.642001300000175	stim	334		1	inst_up_down_1	21.825687500000186	0.008222299999943061
inst_up_down_1	20.650223600000118	stim	335		1	inst_up_down_1	21.83390980000013	0.008340399999951842
inst_up_down_1	20.65856400000007	stim	336		1	inst_up_down_1	21.84225020000008	0.008372300000019095
inst_up_down_1	20.66693630000009	stim	337		1	inst_up_down_1	21.8506225000001	0.00830990000008569
inst_up_down_1	20.675246200000174	stim	338		1	inst_up_down_1	21.858932400000185	0.008404599999948914
inst_up_down_1	20.683650800000123	stim	339		1	inst_up_down_1	21.867337000000134	0.008238299999902665
inst_up_down_1	20.691889100000026	stim	340		1	inst_up_down_1	21.875575300000037	0.008367099999986749
inst_up_down_1	20.700256200000013	stim	341		1	inst_up_down_1	21.883942400000024	0.00841590000004544
inst_up_down_1	20.708672100000058	stim	342		1	inst_up_down_1	21.89235830000007	0.008240000000114378
inst_up_down_1	20.716912100000172	stim	343		1	inst_up_down_1	21.900598300000183	0.00837849999993523
inst_up_down_1	20.725290600000108	stim	344		1	inst_up_down_1	21.90897680000012	0.00829199999998309
inst_up_down_1	20.73358260000009	stim	345		1	inst_up_down_1	21.9172688000001	0.008422599999903468
inst_up_down_1	20.742005199999994	stim	346		1	inst_up_down_1	21.925691400000005	0.008236800000076983
inst_up_down_1	20.75024200000007	stim	347		1	inst_up_down_1	21.933928200000082	0.008317999999917447
inst_up_down_1	20.75855999999999	stim	348		1	inst_up_down_1	21.9422462	0.008413400000108595
inst_up_down_1	20.766973400000097	stim	349		1	inst_up_down_1	21.950659600000108	0.008253499999909764
inst_up_down_1	20.775226900000007	stim	350		1	inst_up_down_1	21.958913100000018	0.008424300000115181
inst_up_down_1	20.783651200000122	stim	351		1	inst_up_down_1	21.967337400000133	0.00827419999995982
inst_up_down_1	20.791925400000082	stim	352		1	inst_up_down_1	21.975611600000093	0.008311399999911373
inst_up_down_1	20.800236799999993	stim	353		1	inst_up_down_1	21.983923000000004	0.008430500000031316
inst_up_down_1	20.808667300000025	stim	354		1	inst_up_down_1	21.992353500000036	0.008230200000070909
inst_up_down_1	20.816897500000096	stim	355		1	inst_up_down_1	22.000583700000107	0.00839799999994284
inst_up_down_1	20.82529550000004	stim	356		1	inst_up_down_1	22.00898170000005	0.008278700000118988
inst_up_down_1	20.833574200000157	stim	357		1	inst_up_down_1	22.01726040000017	0.00831119999998009
inst_up_down_1	20.841885400000137	stim	358		1	inst_up_down_1	22.02557160000015	0.008348599999862927
inst_up_down_1	20.850234	stim	359		1	inst_up_down_1	22.03392020000001	0.008325700000114011
inst_up_down_1	20.858559700000114	stim	360		1	inst_up_down_1	22.042245900000125	0.008386799999925643
inst_up_down_1	20.86694650000004	stim	361		1	inst_up_down_1	22.05063270000005	0.008278900000050271
inst_up_down_1	20.87522540000009	stim	362		1	inst_up_down_1	22.0589116000001	0.008438800000021729
inst_up_down_1	20.883664200000112	stim	363		1	inst_up_down_1	22.067350400000123	0.00819709999996121
inst_up_down_1	20.891861300000073	stim	364		1	inst_up_down_1	22.075547500000084	0.008434900000111156
inst_up_down_1	20.900296200000184	stim	365		1	inst_up_down_1	22.083982400000195	0.008290199999919423
inst_up_down_1	20.908586400000104	stim	366		1	inst_up_down_1	22.092272600000115	0.008302499999899737
inst_up_down_1	20.916888900000004	stim	367		1	inst_up_down_1	22.100575100000015	0.008440400000154114
inst_up_down_1	20.925329300000158	stim	368		1	inst_up_down_1	22.10901550000017	0.008229199999959746
inst_up_down_1	20.933558500000117	stim	369		1	inst_up_down_1	22.11724470000013	0.00834179999992557
inst_up_down_1	20.941900300000043	stim	370		1	inst_up_down_1	22.125586500000054	0.008331400000088252
inst_up_down_1	20.95023170000013	stim	371		1	inst_up_down_1	22.133917900000142	0.008335099999840168
inst_up_down_1	20.95856679999997	stim	372		1	inst_up_down_1	22.142252999999982	0.008448500000213244
inst_up_down_1	20.967015300000185	stim	373		1	inst_up_down_1	22.150701500000196	0.008209899999883419
inst_up_down_1	20.975225200000068	stim	374		1	inst_up_down_1	22.15891140000008	0.008323100000097838
inst_up_down_1	20.983548300000166	stim	375		1	inst_up_down_1	22.167234500000177	0.008421300000009069
inst_up_down_1	20.991969600000175	stim	376		1	inst_up_down_1	22.175655800000186	0.008254099999930986
inst_up_down_1	21.000223700000106	stim	377		1	inst_up_down_1	22.183909900000117	0.00839640000003783
inst_up_down_1	21.008620100000144	stim	378		1	inst_up_down_1	22.192306300000155	0.008273199999848657
inst_up_down_1	21.016893299999992	stim	379		1	inst_up_down_1	22.200579500000003	0.008407400000123744
inst_up_down_1	21.025300700000116	stim	380		1	inst_up_down_1	22.208986900000127	0.008265400000027512
inst_up_down_1	21.033566100000144	stim	381		1	inst_up_down_1	22.217252300000155	0.008331399999860878
inst_up_down_1	21.041897500000005	stim	382		1	inst_up_down_1	22.225583700000016	0.008331600000019534
inst_up_down_1	21.050229100000024	stim	383		1	inst_up_down_1	22.233915300000035	0.008323300000029121
inst_up_down_1	21.058552400000053	stim	384		1	inst_up_down_1	22.242238600000064	0.00843710000003739
inst_up_down_1	21.06698950000009	stim	385		1	inst_up_down_1	22.2506757000001	0.008257700000058321
inst_up_down_1	21.07524720000015	stim	386		1	inst_up_down_1	22.25893340000016	0.00831859999993867
inst_up_down_1	21.083565800000088	stim	387		1	inst_up_down_1	22.2672520000001	0.008345599999984188
inst_up_down_1	21.091911400000072	stim	388		1	inst_up_down_1	22.275597600000083	0.008340399999951842
inst_up_down_1	21.100251800000024	stim	389		1	inst_up_down_1	22.283938000000035	0.008301900000105888
inst_up_down_1	21.10855370000013	stim	390		1	inst_up_down_1	22.29223990000014	0.008332899999913934
inst_up_down_1	21.116886600000043	stim	391		1	inst_up_down_1	22.300572800000054	0.008422399999972185
inst_up_down_1	21.125309000000016	stim	392		1	inst_up_down_1	22.308995200000027	0.008275000000139698
inst_up_down_1	21.133584000000155	stim	393		1	inst_up_down_1	22.317270200000166	0.00830469999982597
inst_up_down_1	21.14188869999998	stim	394		1	inst_up_down_1	22.325574899999992	0.008413100000097984
inst_up_down_1	21.15030180000008	stim	395		1	inst_up_down_1	22.33398800000009	0.008232800000087082
inst_up_down_1	21.158534600000166	stim	396		1	inst_up_down_1	22.342220800000177	0.008443599999964135
inst_up_down_1	21.16697820000013	stim	397		1	inst_up_down_1	22.35066440000014	0.008304499999894688
inst_up_down_1	21.175282700000025	stim	398		1	inst_up_down_1	22.358968900000036	0.008272400000123525
inst_up_down_1	21.18355510000015	stim	399		1	inst_up_down_1	22.36724130000016	0.008374900000035268
inst_up_down_1	21.191930000000184	stim	400		1	inst_up_down_1	22.375616200000195	0.008315199999969991
inst_up_down_1	21.200245200000154	stim	401		1	inst_up_down_1	22.383931400000165	0.008369299999912982
inst_up_down_1	21.208614500000067	stim	402		1	inst_up_down_1	22.392300700000078	0.008282900000040172
inst_up_down_1	21.216897400000107	stim	403		1	inst_up_down_1	22.400583600000118	0.008315099999890663
inst_up_down_1	21.225212499999998	stim	404		1	inst_up_down_1	22.40889870000001	0.008330900000146357
inst_up_down_1	21.233543400000144	stim	405		1	inst_up_down_1	22.417229600000155	0.008338299999877563
inst_up_down_1	21.24188170000002	stim	406		1	inst_up_down_1	22.425567900000033	0.008411700000124256
inst_up_down_1	21.250293400000146	stim	407		1	inst_up_down_1	22.433979600000157	0.008239300000013827
inst_up_down_1	21.25853270000016	stim	408		1	inst_up_down_1	22.44221890000017	0.008456300000034389
inst_up_down_1	21.266989000000194	stim	409		1	inst_up_down_1	22.450675200000205	0.008227799999986019
inst_up_down_1	21.27521680000018	stim	410		1	inst_up_down_1	22.45890300000019	0.008342399999946792
inst_up_down_1	21.283559200000127	stim	411		1	inst_up_down_1	22.467245400000138	0.008300299999973504
inst_up_down_1	21.2918595000001	stim	412		1	inst_up_down_1	22.47554570000011	0.008357200000091325
inst_up_down_1	21.300216700000192	stim	413		1	inst_up_down_1	22.483902900000203	0.008414399999992384
inst_up_down_1	21.308631100000184	stim	414		1	inst_up_down_1	22.492317300000195	0.008243799999945622
inst_up_down_1	21.31687490000013	stim	415		1	inst_up_down_1	22.50056110000014	0.00833369999986644
inst_up_down_1	21.325208599999996	stim	416		1	inst_up_down_1	22.508894800000007	0.008341900000004898
inst_up_down_1	21.3335505	stim	417		1	inst_up_down_1	22.517236700000012	0.008320400000002337
inst_up_down_1	21.341870900000004	stim	418		1	inst_up_down_1	22.525557100000015	0.008408700000018143
inst_up_down_1	21.35027960000002	stim	419		1	inst_up_down_1	22.533965800000033	0.008261400000037611
inst_up_down_1	21.35854100000006	stim	420		1	inst_up_down_1	22.54222720000007	0.008451299999933326
inst_up_down_1	21.366992299999993	stim	421		1	inst_up_down_1	22.550678500000004	0.008215300000074421
inst_up_down_1	21.375207600000067	stim	422		1	inst_up_down_1	22.558893800000078	0.008341599999994287
inst_up_down_1	21.38354920000006	stim	423		1	inst_up_down_1	22.567235400000072	0.008393200000000434
inst_up_down_1	21.39194240000006	stim	424		1	inst_up_down_1	22.575628600000073	0.008311900000080641
inst_up_down_1	21.400254300000142	stim	425		1	inst_up_down_1	22.583940500000153	0.008396899999979723
inst_up_down_1	21.408651200000122	stim	426		1	inst_up_down_1	22.592337400000133	0.00820849999990969
inst_up_down_1	21.416859700000032	stim	427		1	inst_up_down_1	22.600545900000043	0.00833520000014687
inst_up_down_1	21.42519490000018	stim	428		1	inst_up_down_1	22.60888110000019	0.008362899999838191
inst_up_down_1	21.433557800000017	stim	429		1	inst_up_down_1	22.617244000000028	0.008332900000141308
inst_up_down_1	21.441890700000158	stim	430		1	inst_up_down_1	22.62557690000017	0.008436599999868122
inst_up_down_1	21.450327300000026	stim	431		1	inst_up_down_1	22.634013500000037	0.008206500000142114
inst_up_down_1	21.45853380000017	stim	432		1	inst_up_down_1	22.64222000000018	0.008398299999953451
inst_up_down_1	21.466932100000122	stim	433		1	inst_up_down_1	22.650618300000133	0.008266199999980017
inst_up_down_1	21.475198300000102	stim	434		1	inst_up_down_1	22.658884500000113	0.008354399999916495
inst_up_down_1	21.48355270000002	stim	435		1	inst_up_down_1	22.66723890000003	0.00831560000005993
inst_up_down_1	21.49186830000008	stim	436		1	inst_up_down_1	22.67555450000009	0.008372600000029706
inst_up_down_1	21.500240900000108	stim	437		1	inst_up_down_1	22.68392710000012	0.008411900000055539
inst_up_down_1	21.508652800000164	stim	438		1	inst_up_down_1	22.692339000000175	0.00822809999999663
inst_up_down_1	21.51688090000016	stim	439		1	inst_up_down_1	22.70056710000017	0.008316599999943719
inst_up_down_1	21.525197500000104	stim	440		1	inst_up_down_1	22.708883700000115	0.008335799999940718
inst_up_down_1	21.533533300000045	stim	441		1	inst_up_down_1	22.717219500000056	0.00835670000014943
inst_up_down_1	21.541890000000194	stim	442		1	inst_up_down_1	22.725576200000205	0.008406599999943865
inst_up_down_1	21.550296600000138	stim	443		1	inst_up_down_1	22.73398280000015	0.008239199999934499
inst_up_down_1	21.558535800000072	stim	444		1	inst_up_down_1	22.742222000000083	0.008346000000074127
inst_up_down_1	21.566881800000147	stim	445		1	inst_up_down_1	22.750568000000158	0.00832189999982802
inst_up_down_1	21.575203699999975	stim	446		1	inst_up_down_1	22.758889899999986	0.00842360000001463
inst_up_down_1	21.58362729999999	stim	447		1	inst_up_down_1	22.7673135	0.008423900000025242
inst_up_down_1	21.592051200000014	stim	448		1	inst_up_down_1	22.775737400000025	0.00815750000015214
inst_up_down_1	21.600208700000167	stim	449		1	inst_up_down_1	22.783894900000178	0.008334999999988213
inst_up_down_1	21.608543700000155	stim	450		1	inst_up_down_1	22.792229900000166	0.008424399999967136
inst_up_down_1	21.616968100000122	stim	451		1	inst_up_down_1	22.800654300000133	0.008232899999939036
inst_up_down_1	21.62520100000006	stim	452		1	inst_up_down_1	22.808887200000072	0.008341599999994287
inst_up_down_1	21.633542600000055	stim	453		1	inst_up_down_1	22.817228800000066	0.008327799999960916
inst_up_down_1	21.641870400000016	stim	454		1	inst_up_down_1	22.825556600000027	0.008451800000102594
inst_up_down_1	21.65032220000012	stim	455		1	inst_up_down_1	22.83400840000013	0.008214799999905154
inst_up_down_1	21.658537000000024	stim	456		1	inst_up_down_1	22.842223200000035	0.008342300000094838
inst_up_down_1	21.66687930000012	stim	457		1	inst_up_down_1	22.85056550000013	0.008304700000053344
inst_up_down_1	21.675184000000172	stim	458		1	inst_up_down_1	22.858870200000183	0.008359100000006947
inst_up_down_1	21.68354310000018	stim	459		1	inst_up_down_1	22.86722930000019	0.008394099999804894
inst_up_down_1	21.691937199999984	stim	460		1	inst_up_down_1	22.875623399999995	0.008262900000090667
inst_up_down_1	21.700200100000075	stim	461		1	inst_up_down_1	22.883886300000086	0.008332899999913934
inst_up_down_1	21.70853299999999	stim	462		1	inst_up_down_1	22.8922192	0.008490500000107204
inst_up_down_1	21.717023500000096	stim	463		1	inst_up_down_1	22.900709700000107	0.008173599999963699
inst_up_down_1	21.72519710000006	stim	464		1	inst_up_down_1	22.90888330000007	0.008419000000003507
inst_up_down_1	21.733616100000063	stim	465		1	inst_up_down_1	22.917302300000074	0.008246099999951184
inst_up_down_1	21.741862200000014	stim	466		1	inst_up_down_1	22.925548400000025	0.008367000000134794
inst_up_down_1	21.75022920000015	stim	467		1	inst_up_down_1	22.93391540000016	0.008287299999892639
inst_up_down_1	21.75851650000004	stim	468		1	inst_up_down_1	22.942202700000053	0.008370199999944816
inst_up_down_1	21.766886699999986	stim	469		1	inst_up_down_1	22.950572899999997	0.008298400000057882
inst_up_down_1	21.775185100000044	stim	470		1	inst_up_down_1	22.958871300000055	0.00837109999997665
inst_up_down_1	21.78355620000002	stim	471		1	inst_up_down_1	22.967242400000032	0.008428000000094471
inst_up_down_1	21.791984200000115	stim	472		1	inst_up_down_1	22.975670400000126	0.008415399999876172
inst_up_down_1	21.80039959999999	stim	473		1	inst_up_down_1	22.984085800000003	0.008229700000129014
inst_up_down_1	21.80862930000012	stim	474		1	inst_up_down_1	22.99231550000013	0.008261100000027
inst_up_down_1	21.816890400000148	stim	475		1	inst_up_down_1	23.00057660000016	0.00832019999984368
inst_up_down_1	21.82521059999999	stim	476		1	inst_up_down_1	23.008896800000002	0.008409500000198022
inst_up_down_1	21.83362010000019	stim	477		1	inst_up_down_1	23.0173063000002	0.00824649999981375
inst_up_down_1	21.841866600000003	stim	478		1	inst_up_down_1	23.025552800000014	0.008340400000179216
inst_up_down_1	21.850207000000182	stim	479		1	inst_up_down_1	23.033893200000193	3.0678831999998692
inst_left_right_1	24.91809020000005	stim	0		1	inst_left_right_1	26.101776400000062	0.008345700000063516
inst_left_right_1	24.926435900000115	stim	1		1	inst_left_right_1	26.110122100000126	0.008307300000069517
inst_left_right_1	24.934743200000185	stim	2		1	inst_left_right_1	26.118429400000196	0.008324899999934132
inst_left_right_1	24.94306810000012	stim	3		1	inst_left_right_1	26.12675430000013	0.007067300000016985
inst_left_right_1	24.950135400000136	stim	4		1	inst_left_right_1	26.133821600000147	0.008431499999915104
inst_left_right_1	24.95856690000005	stim	5		1	inst_left_right_1	26.14225310000006	0.00823579999996582
inst_left_right_1	24.966802700000017	stim	6		1	inst_left_right_1	26.150488900000028	0.008322000000134722
inst_left_right_1	24.97512470000015	stim	7		1	inst_left_right_1	26.158810900000162	0.008341599999994287
inst_left_right_1	24.983466300000146	stim	8		1	inst_left_right_1	26.167152500000157	0.008311899999853267
inst_left_right_1	24.9917782	stim	9		1	inst_left_right_1	26.17546440000001	0.008419700000104058
inst_left_right_1	25.000197900000103	stim	10		1	inst_left_right_1	26.183884100000114	0.008272000000033586
inst_left_right_1	25.008469900000136	stim	11		1	inst_left_right_1	26.192156100000147	0.008337999999866952
inst_left_right_1	25.016807900000003	stim	12		1	inst_left_right_1	26.200494100000014	0.008414900000161651
inst_left_right_1	25.025222800000165	stim	13		1	inst_left_right_1	26.208909000000176	0.008259799999905226
inst_left_right_1	25.03348260000007	stim	14		1	inst_left_right_1	26.21716880000008	0.00839300000006915
inst_left_right_1	25.04187560000014	stim	15		1	inst_left_right_1	26.22556180000015	0.008255899999994654
inst_left_right_1	25.050131500000134	stim	16		1	inst_left_right_1	26.233817700000145	0.008332500000051368
inst_left_right_1	25.058464000000185	stim	17		1	inst_left_right_1	26.242150200000196	0.008394599999974162
inst_left_right_1	25.06685860000016	stim	18		1	inst_left_right_1	26.25054480000017	0.00826480000000629
inst_left_right_1	25.075123400000166	stim	19		1	inst_left_right_1	26.258809600000177	0.008404299999938303
inst_left_right_1	25.083527700000104	stim	20		1	inst_left_right_1	26.267213900000115	0.008252399999946647
inst_left_right_1	25.09178010000005	stim	21		1	inst_left_right_1	26.275466300000062	0.00845830000002934
inst_left_right_1	25.10023840000008	stim	22		1	inst_left_right_1	26.28392460000009	0.00819380000007186
inst_left_right_1	25.108432200000152	stim	23		1	inst_left_right_1	26.292118400000163	0.008400799999890296
inst_left_right_1	25.116833000000042	stim	24		1	inst_left_right_1	26.300519200000053	0.00826879999999619
inst_left_right_1	25.12510180000004	stim	25		1	inst_left_right_1	26.30878800000005	0.008364700000129233
inst_left_right_1	25.133466500000168	stim	26		1	inst_left_right_1	26.31715270000018	0.008391800000026706
inst_left_right_1	25.141858300000195	stim	27		1	inst_left_right_1	26.325544500000206	0.00828019999994467
inst_left_right_1	25.15013850000014	stim	28		1	inst_left_right_1	26.33382470000015	0.008315999999922496
inst_left_right_1	25.15845450000006	stim	29		1	inst_left_right_1	26.342140700000073	0.008346099999926082
inst_left_right_1	25.166800599999988	stim	30		1	inst_left_right_1	26.3504868	0.008312800000112475
inst_left_right_1	25.1751134000001	stim	31		1	inst_left_right_1	26.35879960000011	0.008432500000026266
inst_left_right_1	25.183545900000126	stim	32		1	inst_left_right_1	26.367232100000138	0.008231600000044637
inst_left_right_1	25.19177750000017	stim	33		1	inst_left_right_1	26.375463700000182	0.008350800000016534
inst_left_right_1	25.200128300000188	stim	34		1	inst_left_right_1	26.3838145000002	0.008313899999848218
inst_left_right_1	25.208442200000036	stim	35		1	inst_left_right_1	26.392128400000047	0.008357400000022608
inst_left_right_1	25.21679960000006	stim	36		1	inst_left_right_1	26.40048580000007	0.00838249999992513
inst_left_right_1	25.225182099999984	stim	37		1	inst_left_right_1	26.408868299999995	0.008280300000023999
inst_left_right_1	25.233462400000008	stim	38		1	inst_left_right_1	26.41714860000002	0.00852959999997438
inst_left_right_1	25.241991999999982	stim	39		1	inst_left_right_1	26.425678199999993	0.00813060000018595
inst_left_right_1	25.250122600000168	stim	40		1	inst_left_right_1	26.43380880000018	0.008336899999903835
inst_left_right_1	25.258459500000072	stim	41		1	inst_left_right_1	26.442145700000083	0.008387900000116133
inst_left_right_1	25.266847400000188	stim	42		1	inst_left_right_1	26.4505336000002	0.008263399999805188
inst_left_right_1	25.275110799999993	stim	43		1	inst_left_right_1	26.458797000000004	0.00846840000008342
inst_left_right_1	25.283579200000077	stim	44		1	inst_left_right_1	26.467265400000088	0.008195699999987482
inst_left_right_1	25.291774900000064	stim	45		1	inst_left_right_1	26.475461100000075	0.008349100000032195
inst_left_right_1	25.300124000000096	stim	46		1	inst_left_right_1	26.483810200000107	0.008319799999981115
inst_left_right_1	25.308443800000077	stim	47		1	inst_left_right_1	26.49213000000009	0.008340699999962453
inst_left_right_1	25.31678450000004	stim	48		1	inst_left_right_1	26.50047070000005	0.008325199999944743
inst_left_right_1	25.325109699999985	stim	49		1	inst_left_right_1	26.508795899999996	0.011664800000062314
inst_left_right_1	25.336774500000047	stim	50		1	inst_left_right_1	26.520460700000058	0.00567999999998392
inst_left_right_1	25.34245450000003	stim	51		1	inst_left_right_1	26.52614070000004	0.008927800000037678
inst_left_right_1	25.35138230000007	stim	52		1	inst_left_right_1	26.53506850000008	0.008340600000110499
inst_left_right_1	25.35972290000018	stim	53		1	inst_left_right_1	26.54340910000019	0.008360899999843241
inst_left_right_1	25.368083800000022	stim	54		1	inst_left_right_1	26.551770000000033	0.008291399999961868
inst_left_right_1	25.376375199999984	stim	55		1	inst_left_right_1	26.560061399999995	0.008478400000058173
inst_left_right_1	25.384853600000042	stim	56		1	inst_left_right_1	26.568539800000053	0.008225000000038563
inst_left_right_1	25.39307860000008	stim	57		1	inst_left_right_1	26.576764800000092	0.008317100000112987
inst_left_right_1	25.401395700000194	stim	58		1	inst_left_right_1	26.585081900000205	0.008314199999858829
inst_left_right_1	25.409709900000053	stim	59		1	inst_left_right_1	26.593396100000064	0.008387399999946865
inst_left_right_1	25.4180973	stim	60		1	inst_left_right_1	26.60178350000001	0.008361000000149943
inst_left_right_1	25.42645830000015	stim	61		1	inst_left_right_1	26.61014450000016	0.008461799999849973
inst_left_right_1	25.4349201	stim	62		1	inst_left_right_1	26.61860630000001	0.007597000000032494
inst_left_right_1	25.442517100000032	stim	63		1	inst_left_right_1	26.626203300000043	0.009074300000065705
inst_left_right_1	25.451591400000098	stim	64		1	inst_left_right_1	26.63527760000011	0.008075799999915034
inst_left_right_1	25.459667200000013	stim	65		1	inst_left_right_1	26.643353400000024	0.00834220000001551
inst_left_right_1	25.468009400000028	stim	66		1	inst_left_right_1	26.65169560000004	0.008391600000095423
inst_left_right_1	25.476401000000124	stim	67		1	inst_left_right_1	26.660087200000135	0.008363299999928131
inst_left_right_1	25.48476430000005	stim	68		1	inst_left_right_1	26.668450500000063	0.008233700000118915
inst_left_right_1	25.49299800000017	stim	69		1	inst_left_right_1	26.67668420000018	0.008344599999873026
inst_left_right_1	25.501342600000044	stim	70		1	inst_left_right_1	26.685028800000055	0.008336399999961941
inst_left_right_1	25.509679000000006	stim	71		1	inst_left_right_1	26.693365200000017	0.0083266999999978
inst_left_right_1	25.518005700000003	stim	72		1	inst_left_right_1	26.701691900000014	0.008402000000160115
inst_left_right_1	25.526407700000163	stim	73		1	inst_left_right_1	26.710093900000174	0.008232799999859708
inst_left_right_1	25.534640500000023	stim	74		1	inst_left_right_1	26.718326700000034	0.008333600000014485
inst_left_right_1	25.542974100000038	stim	75		1	inst_left_right_1	26.72666030000005	0.008385200000020632
inst_left_right_1	25.55135930000006	stim	76		1	inst_left_right_1	26.73504550000007	0.00829410000005737
inst_left_right_1	25.559653400000116	stim	77		1	inst_left_right_1	26.743339600000127	0.008442000000059124
inst_left_right_1	25.568095400000175	stim	78		1	inst_left_right_1	26.751781600000186	0.008206799999925352
inst_left_right_1	25.5763022000001	stim	79		1	inst_left_right_1	26.75998840000011	0.008384700000078738
inst_left_right_1	25.58468690000018	stim	80		1	inst_left_right_1	26.76837310000019	0.008327499999950305
inst_left_right_1	25.59301440000013	stim	81		1	inst_left_right_1	26.77670060000014	0.008324200000060955
inst_left_right_1	25.60133860000019	stim	82		1	inst_left_right_1	26.7850248000002	0.008299899999883564
inst_left_right_1	25.609638500000074	stim	83		1	inst_left_right_1	26.793324700000085	0.00833809999994628
inst_left_right_1	25.61797660000002	stim	84		1	inst_left_right_1	26.80166280000003	0.008464600000024802
inst_left_right_1	25.626441200000045	stim	85		1	inst_left_right_1	26.810127400000056	0.008365200000071127
inst_left_right_1	25.634806400000116	stim	86		1	inst_left_right_1	26.818492600000127	0.007724800000005416
inst_left_right_1	25.64253120000012	stim	87		1	inst_left_right_1	26.826217400000132	0.008719299999938812
inst_left_right_1	25.65125050000006	stim	88		1	inst_left_right_1	26.83493670000007	0.008386900000004971
inst_left_right_1	25.659637400000065	stim	89		1	inst_left_right_1	26.843323600000076	0.00842360000001463
inst_left_right_1	25.66806100000008	stim	90		1	inst_left_right_1	26.85174720000009	0.008188199999949575
inst_left_right_1	25.67624920000003	stim	91		1	inst_left_right_1	26.85993540000004	0.008353100000022096
inst_left_right_1	25.68460230000005	stim	92		1	inst_left_right_1	26.868288500000062	0.008317799999986164
inst_left_right_1	25.692920100000038	stim	93		1	inst_left_right_1	26.87660630000005	0.008332000000109474
inst_left_right_1	25.701252100000147	stim	94		1	inst_left_right_1	26.884938300000158	0.008458499999960623
inst_left_right_1	25.709710600000108	stim	95		1	inst_left_right_1	26.89339680000012	0.008194399999865709
inst_left_right_1	25.717904999999973	stim	96		1	inst_left_right_1	26.901591199999984	0.008376100000077713
inst_left_right_1	25.72628110000005	stim	97		1	inst_left_right_1	26.909967300000062	0.008292299999993702
inst_left_right_1	25.734573400000045	stim	98		1	inst_left_right_1	26.918259600000056	0.008365099999991799
inst_left_right_1	25.742938500000037	stim	99		1	inst_left_right_1	26.926624700000048	0.008409499999970649
inst_left_right_1	25.751348000000007	stim	100		1	inst_left_right_1	26.93503420000002	0.008243400000083057
inst_left_right_1	25.75959140000009	stim	101		1	inst_left_right_1	26.9432776000001	0.008357100000011997
inst_left_right_1	25.767948500000102	stim	102		1	inst_left_right_1	26.951634700000113	0.00830679999990025
inst_left_right_1	25.776255300000003	stim	103		1	inst_left_right_1	26.959941500000014	0.008350600000085251
inst_left_right_1	25.784605900000088	stim	104		1	inst_left_right_1	26.9682921000001	0.00831360000006498
inst_left_right_1	25.792919500000153	stim	105		1	inst_left_right_1	26.976605700000164	0.00831689999995433
inst_left_right_1	25.801236400000107	stim	106		1	inst_left_right_1	26.984922600000118	0.008465399999977308
inst_left_right_1	25.809701800000084	stim	107		1	inst_left_right_1	26.993388000000095	0.008232899999939036
inst_left_right_1	25.817934700000023	stim	108		1	inst_left_right_1	27.001620900000034	0.008313300000054369
inst_left_right_1	25.826248000000078	stim	109		1	inst_left_right_1	27.00993420000009	0.00837879999994584
inst_left_right_1	25.834626800000024	stim	110		1	inst_left_right_1	27.018313000000035	0.008524900000111302
inst_left_right_1	25.843151700000135	stim	111		1	inst_left_right_1	27.026837900000146	0.007696099999975559
inst_left_right_1	25.85084780000011	stim	112		1	inst_left_right_1	27.03453400000012	0.006193899999971109
inst_left_right_1	25.85704170000008	stim	113		1	inst_left_right_1	27.040727900000093	0.008203399999956673
inst_left_right_1	25.86524510000004	stim	114		1	inst_left_right_1	27.04893130000005	0.008322500000076616
inst_left_right_1	25.873567600000115	stim	115		1	inst_left_right_1	27.057253800000126	0.008440500000006068
inst_left_right_1	25.88200810000012	stim	116		1	inst_left_right_1	27.065694300000132	0.008220899999969333
inst_left_right_1	25.89022900000009	stim	117		1	inst_left_right_1	27.0739152000001	0.0083730999999716
inst_left_right_1	25.898602100000062	stim	118		1	inst_left_right_1	27.082288300000073	0.008308700000043245
inst_left_right_1	25.906910800000105	stim	119		1	inst_left_right_1	27.090597000000116	0.008333799999945768
inst_left_right_1	25.91524460000005	stim	120		1	inst_left_right_1	27.098930800000062	0.008336200000030658
inst_left_right_1	25.92358080000008	stim	121		1	inst_left_right_1	27.107267000000093	0.008452399999896443
inst_left_right_1	25.932033199999978	stim	122		1	inst_left_right_1	27.11571939999999	0.008199400000194146
inst_left_right_1	25.940232600000172	stim	123		1	inst_left_right_1	27.123918800000183	0.0083458999999948
inst_left_right_1	25.948578500000167	stim	124		1	inst_left_right_1	27.132264700000178	0.008361799999875075
inst_left_right_1	25.956940300000042	stim	125		1	inst_left_right_1	27.140626500000053	0.008299200000010387
inst_left_right_1	25.965239500000052	stim	126		1	inst_left_right_1	27.148925700000063	0.008426999999983309
inst_left_right_1	25.973666500000036	stim	127		1	inst_left_right_1	27.157352700000047	0.008245799999940573
inst_left_right_1	25.981912299999976	stim	128		1	inst_left_right_1	27.165598499999987	0.008330700000215074
inst_left_right_1	25.99024300000019	stim	129		1	inst_left_right_1	27.173929200000202	0.00833409999995638
inst_left_right_1	25.998577100000148	stim	130		1	inst_left_right_1	27.18226330000016	0.00832389999982297
inst_left_right_1	26.00690099999997	stim	131		1	inst_left_right_1	27.19058719999998	0.00834250000002612
inst_left_right_1	26.015243499999997	stim	132		1	inst_left_right_1	27.198929700000008	0.008318500000086715
inst_left_right_1	26.023562000000084	stim	133		1	inst_left_right_1	27.207248200000095	0.008505300000024363
inst_left_right_1	26.032067300000108	stim	134		1	inst_left_right_1	27.21575350000012	0.0082199999999375
inst_left_right_1	26.040287300000045	stim	135		1	inst_left_right_1	27.223973500000056	0.008313999999927546
inst_left_right_1	26.048601299999973	stim	136		1	inst_left_right_1	27.232287499999984	0.008299500000020998
inst_left_right_1	26.056900799999994	stim	137		1	inst_left_right_1	27.240587000000005	0.008341599999994287
inst_left_right_1	26.06524239999999	stim	138		1	inst_left_right_1	27.2489286	0.008444400000144014
inst_left_right_1	26.073686800000132	stim	139		1	inst_left_right_1	27.257373000000143	0.008220899999969333
inst_left_right_1	26.0819077000001	stim	140		1	inst_left_right_1	27.265593900000113	0.008419999999887295
inst_left_right_1	26.09032769999999	stim	141		1	inst_left_right_1	27.2740139	0.008237100000087594
inst_left_right_1	26.098564800000077	stim	142		1	inst_left_right_1	27.282251000000088	0.008347599999979138
inst_left_right_1	26.106912400000056	stim	143		1	inst_left_right_1	27.290598600000067	0.008429799999930765
inst_left_right_1	26.115342199999986	stim	144		1	inst_left_right_1	27.299028399999997	0.008239000000003216
inst_left_right_1	26.12358119999999	stim	145		1	inst_left_right_1	27.3072674	0.008320099999991726
inst_left_right_1	26.13190129999998	stim	146		1	inst_left_right_1	27.315587499999992	0.008320900000171605
inst_left_right_1	26.140222200000153	stim	147		1	inst_left_right_1	27.323908400000164	0.008325300000024072
inst_left_right_1	26.148547500000177	stim	148		1	inst_left_right_1	27.332233700000188	0.008336899999903835
inst_left_right_1	26.15688440000008	stim	149		1	inst_left_right_1	27.340570600000092	0.008335700000088764
inst_left_right_1	26.16522010000017	stim	150		1	inst_left_right_1	27.34890630000018	0.008462599999802478
inst_left_right_1	26.173682699999972	stim	151		1	inst_left_right_1	27.357368899999983	0.00820400000020527
inst_left_right_1	26.181886700000177	stim	152		1	inst_left_right_1	27.36557290000019	0.008318099999996775
inst_left_right_1	26.190204800000174	stim	153		1	inst_left_right_1	27.373891000000185	0.008344699999952354
inst_left_right_1	26.198549500000126	stim	154		1	inst_left_right_1	27.382235700000138	0.008336200000030658
inst_left_right_1	26.206885700000157	stim	155		1	inst_left_right_1	27.390571900000168	0.008440599999858023
inst_left_right_1	26.215326300000015	stim	156		1	inst_left_right_1	27.399012500000026	0.00822110000012799
inst_left_right_1	26.223547400000143	stim	157		1	inst_left_right_1	27.407233600000154	0.008329499999945256
inst_left_right_1	26.23187690000009	stim	158		1	inst_left_right_1	27.4155631000001	0.008485699999937424
inst_left_right_1	26.240362600000026	stim	159		1	inst_left_right_1	27.424048800000037	0.008210400000052687
inst_left_right_1	26.24857300000008	stim	160		1	inst_left_right_1	27.43225920000009	0.008455200000071272
inst_left_right_1	26.25702820000015	stim	161		1	inst_left_right_1	27.44071440000016	0.008181199999853561
inst_left_right_1	26.265209400000003	stim	162		1	inst_left_right_1	27.448895600000014	0.008333900000025096
inst_left_right_1	26.27354330000003	stim	163		1	inst_left_right_1	27.45722950000004	0.008333400000083202
inst_left_right_1	26.28187670000011	stim	164		1	inst_left_right_1	27.465562900000123	0.008427600000004531
inst_left_right_1	26.290304300000116	stim	165		1	inst_left_right_1	27.473990500000127	0.008395899999868561
inst_left_right_1	26.298700199999985	stim	166		1	inst_left_right_1	27.482386399999996	0.008174900000085472
inst_left_right_1	26.30687510000007	stim	167		1	inst_left_right_1	27.49056130000008	0.008461000000124841
inst_left_right_1	26.315336100000195	stim	168		1	inst_left_right_1	27.499022300000206	0.00820279999993545
inst_left_right_1	26.32353890000013	stim	169		1	inst_left_right_1	27.50722510000014	0.008341400000063004
inst_left_right_1	26.331880300000194	stim	170		1	inst_left_right_1	27.515566500000205	0.00832429999991291
inst_left_right_1	26.340204600000106	stim	171		1	inst_left_right_1	27.523890800000117	0.008334899999908885
inst_left_right_1	26.348539500000015	stim	172		1	inst_left_right_1	27.532225700000026	0.00843510000004244
inst_left_right_1	26.356974600000058	stim	173		1	inst_left_right_1	27.54066080000007	0.008372700000109035
inst_left_right_1	26.365347300000167	stim	174		1	inst_left_right_1	27.549033500000178	0.00819309999997131
inst_left_right_1	26.373540400000138	stim	175		1	inst_left_right_1	27.55722660000015	0.008339100000057442
inst_left_right_1	26.381879500000196	stim	176		1	inst_left_right_1	27.565565700000207	0.008327799999960916
inst_left_right_1	26.390207300000156	stim	177		1	inst_left_right_1	27.573893500000167	0.008414299999913055
inst_left_right_1	26.39862160000007	stim	178		1	inst_left_right_1	27.58230780000008	0.0082471999999143
inst_left_right_1	26.406868799999984	stim	179		1	inst_left_right_1	27.590554999999995	0.008338700000194876
inst_left_right_1	26.41520750000018	stim	180		1	inst_left_right_1	27.59889370000019	0.008328599999913422
inst_left_right_1	26.423536100000092	stim	181		1	inst_left_right_1	27.607222300000103	0.008338000000094326
inst_left_right_1	26.431874100000186	stim	182		1	inst_left_right_1	27.615560300000197	0.00848479999990559
inst_left_right_1	26.440358900000092	stim	183		1	inst_left_right_1	27.624045100000103	0.00817589999996926
inst_left_right_1	26.44853480000006	stim	184		1	inst_left_right_1	27.632221000000072	0.008473900000126378
inst_left_right_1	26.457008700000188	stim	185		1	inst_left_right_1	27.6406949000002	0.008220399999800065
inst_left_right_1	26.465229099999988	stim	186		1	inst_left_right_1	27.6489153	0.008322900000166555
inst_left_right_1	26.473552000000154	stim	187		1	inst_left_right_1	27.657238200000165	0.008415600000034829
inst_left_right_1	26.48196760000019	stim	188		1	inst_left_right_1	27.6656538000002	0.008238199999823337
inst_left_right_1	26.490205800000012	stim	189		1	inst_left_right_1	27.673892000000023	0.008479200000010678
inst_left_right_1	26.498685000000023	stim	190		1	inst_left_right_1	27.682371200000034	0.008184199999959674
inst_left_right_1	26.506869199999983	stim	191		1	inst_left_right_1	27.690555399999994	0.008340000000089276
inst_left_right_1	26.515209200000072	stim	192		1	inst_left_right_1	27.698895400000083	0.008328800000072079
inst_left_right_1	26.523538000000144	stim	193		1	inst_left_right_1	27.707224200000155	0.008335299999998824
inst_left_right_1	26.531873300000143	stim	194		1	inst_left_right_1	27.715559500000154	0.008329699999876539
inst_left_right_1	26.54020300000002	stim	195		1	inst_left_right_1	27.72388920000003	0.008332900000141308
inst_left_right_1	26.54853590000016	stim	196		1	inst_left_right_1	27.732222100000172	0.008473999999978332
inst_left_right_1	26.55700990000014	stim	197		1	inst_left_right_1	27.74069610000015	0.008202199999914228
inst_left_right_1	26.565212100000053	stim	198		1	inst_left_right_1	27.748898300000064	0.008320800000092277
inst_left_right_1	26.573532900000146	stim	199		1	inst_left_right_1	27.757219100000157	0.008332099999961429
inst_left_right_1	26.581865000000107	stim	200		1	inst_left_right_1	27.765551200000118	0.008340800000041781
inst_left_right_1	26.59020580000015	stim	201		1	inst_left_right_1	27.77389200000016	0.008483800000021802
inst_left_right_1	26.59868960000017	stim	202		1	inst_left_right_1	27.78237580000018	0.008179400000017267
inst_left_right_1	26.606869000000188	stim	203		1	inst_left_right_1	27.7905552000002	0.00833409999995638
inst_left_right_1	26.615203100000144	stim	204		1	inst_left_right_1	27.798889300000155	0.008326399999987188
inst_left_right_1	26.62352950000013	stim	205		1	inst_left_right_1	27.807215700000143	0.008334899999908885
inst_left_right_1	26.63186440000004	stim	206		1	inst_left_right_1	27.81555060000005	0.008487900000091031
inst_left_right_1	26.64035230000013	stim	207		1	inst_left_right_1	27.824038500000142	0.008179899999959162
inst_left_right_1	26.64853220000009	stim	208		1	inst_left_right_1	27.8322184000001	0.008328200000050856
inst_left_right_1	26.65686040000014	stim	209		1	inst_left_right_1	27.840546600000152	0.008490799999890442
inst_left_right_1	26.665351200000032	stim	210		1	inst_left_right_1	27.849037400000043	0.008179200000085984
inst_left_right_1	26.673530400000118	stim	211		1	inst_left_right_1	27.85721660000013	0.00842489999990903
inst_left_right_1	26.681955300000027	stim	212		1	inst_left_right_1	27.865641500000038	0.008236099999976432
inst_left_right_1	26.690191400000003	stim	213		1	inst_left_right_1	27.873877600000014	0.008491000000049098
inst_left_right_1	26.698682400000052	stim	214		1	inst_left_right_1	27.882368600000063	0.008170699999936915
inst_left_right_1	26.70685309999999	stim	215		1	inst_left_right_1	27.8905393	0.008351500000117085
inst_left_right_1	26.715204600000106	stim	216		1	inst_left_right_1	27.898890800000117	0.008322800000087227
inst_left_right_1	26.723527400000194	stim	217		1	inst_left_right_1	27.907213600000205	0.008337799999935669
inst_left_right_1	26.73186520000013	stim	218		1	inst_left_right_1	27.91555140000014	0.008453299999928277
inst_left_right_1	26.740318500000058	stim	219		1	inst_left_right_1	27.92400470000007	0.008217900000090594
inst_left_right_1	26.748536400000148	stim	220		1	inst_left_right_1	27.93222260000016	0.008325099999865415
inst_left_right_1	26.756861500000014	stim	221		1	inst_left_right_1	27.940547700000025	0.008444600000075297
inst_left_right_1	26.76530610000009	stim	222		1	inst_left_right_1	27.9489923000001	0.008221399999911227
inst_left_right_1	26.7735275	stim	223		1	inst_left_right_1	27.95721370000001	0.008447900000192021
inst_left_right_1	26.781975400000192	stim	224		1	inst_left_right_1	27.965661600000203	0.008211399999936475
inst_left_right_1	26.79018680000013	stim	225		1	inst_left_right_1	27.97387300000014	0.00842289999991408
inst_left_right_1	26.798609700000043	stim	226		1	inst_left_right_1	27.982295900000054	0.008239300000013827
inst_left_right_1	26.806849000000057	stim	227		1	inst_left_right_1	27.990535200000068	0.008347700000058467
inst_left_right_1	26.815196700000115	stim	228		1	inst_left_right_1	27.998882900000126	0.008327699999881588
inst_left_right_1	26.823524399999997	stim	229		1	inst_left_right_1	28.007210600000008	0.008351300000185802
inst_left_right_1	26.831875700000182	stim	230		1	inst_left_right_1	28.015561900000193	0.008481299999857583
inst_left_right_1	26.84035700000004	stim	231		1	inst_left_right_1	28.02404320000005	0.008202100000062273
inst_left_right_1	26.848559100000102	stim	232		1	inst_left_right_1	28.032245300000113	0.008302799999910349
inst_left_right_1	26.856861900000013	stim	233		1	inst_left_right_1	28.040548100000024	0.008486599999969258
inst_left_right_1	26.865348499999982	stim	234		1	inst_left_right_1	28.049034699999993	0.0082187000000431
inst_left_right_1	26.873567200000025	stim	235		1	inst_left_right_1	28.057253400000036	0.00842770000008386
inst_left_right_1	26.88199490000011	stim	236		1	inst_left_right_1	28.06568110000012	0.008186099999875296
inst_left_right_1	26.890180999999984	stim	237		1	inst_left_right_1	28.073867199999995	0.008352199999990262
inst_left_right_1	26.898533199999974	stim	238		1	inst_left_right_1	28.082219399999985	0.008469700000205194
inst_left_right_1	26.90700290000018	stim	239		1	inst_left_right_1	28.09068910000019	0.008186099999875296
inst_left_right_1	26.915189000000055	stim	240		1	inst_left_right_1	28.098875200000066	0.008336300000109986
inst_left_right_1	26.923525300000165	stim	241		1	inst_left_right_1	28.107211500000176	0.008320400000002337
inst_left_right_1	26.931845700000167	stim	242		1	inst_left_right_1	28.115531900000178	0.008351299999958428
inst_left_right_1	26.940197000000126	stim	243		1	inst_left_right_1	28.123883200000137	0.008329000000003361
inst_left_right_1	26.94852600000013	stim	244		1	inst_left_right_1	28.13221220000014	0.0083306999999877
inst_left_right_1	26.956856700000117	stim	245		1	inst_left_right_1	28.140542900000128	0.008397899999863512
inst_left_right_1	26.96525459999998	stim	246		1	inst_left_right_1	28.14894079999999	0.0082598000001326
inst_left_right_1	26.973514400000113	stim	247		1	inst_left_right_1	28.157200600000124	0.008477200000015728
inst_left_right_1	26.98199160000013	stim	248		1	inst_left_right_1	28.16567780000014	0.008208400000057736
inst_left_right_1	26.990200000000186	stim	249		1	inst_left_right_1	28.173886200000197	0.00832589999981792
inst_left_right_1	26.998525900000004	stim	250		1	inst_left_right_1	28.182212100000015	0.00832869999999275
inst_left_right_1	27.006854599999997	stim	251		1	inst_left_right_1	28.190540800000008	0.008336900000131209
inst_left_right_1	27.015191500000128	stim	252		1	inst_left_right_1	28.19887770000014	0.00843059999988327
inst_left_right_1	27.02362210000001	stim	253		1	inst_left_right_1	28.207308300000022	0.00823209999998653
inst_left_right_1	27.031854199999998	stim	254		1	inst_left_right_1	28.21554040000001	0.008327500000177679
inst_left_right_1	27.040181700000176	stim	255		1	inst_left_right_1	28.223867900000187	0.008499399999891466
inst_left_right_1	27.048681100000067	stim	256		1	inst_left_right_1	28.232367300000078	0.008170999999947526
inst_left_right_1	27.056852100000015	stim	257		1	inst_left_right_1	28.240538300000026	0.008333700000093813
inst_left_right_1	27.06518580000011	stim	258		1	inst_left_right_1	28.24887200000012	0.008356399999911446
inst_left_right_1	27.07354220000002	stim	259		1	inst_left_right_1	28.25722840000003	0.008316400000012436
inst_left_right_1	27.081858600000032	stim	260		1	inst_left_right_1	28.265544800000043	0.008325700000114011
inst_left_right_1	27.090184300000146	stim	261		1	inst_left_right_1	28.273870500000157	0.00833769999985634
inst_left_right_1	27.098522000000003	stim	262		1	inst_left_right_1	28.282208200000014	0.00831930000003922
inst_left_right_1	27.106841300000042	stim	263		1	inst_left_right_1	28.290527500000053	0.00843750000012733
inst_left_right_1	27.11527880000017	stim	264		1	inst_left_right_1	28.29896500000018	0.008363899999949354
inst_left_right_1	27.12364270000012	stim	265		1	inst_left_right_1	28.30732890000013	0.008232700000007753
inst_left_right_1	27.131875400000126	stim	266		1	inst_left_right_1	28.315561600000137	0.008309399999916423
inst_left_right_1	27.140184800000043	stim	267		1	inst_left_right_1	28.323871000000054	0.008337600000004386
inst_left_right_1	27.148522400000047	stim	268		1	inst_left_right_1	28.332208600000058	0.008319799999981115
inst_left_right_1	27.15684220000003	stim	269		1	inst_left_right_1	28.34052840000004	0.008448700000144527
inst_left_right_1	27.165290900000173	stim	270		1	inst_left_right_1	28.348977100000184	0.008225599999832411
inst_left_right_1	27.173516500000005	stim	271		1	inst_left_right_1	28.357202700000016	0.008337800000163043
inst_left_right_1	27.181854300000168	stim	272		1	inst_left_right_1	28.36554050000018	0.008321599999817408
inst_left_right_1	27.190175899999986	stim	273		1	inst_left_right_1	28.373862099999997	0.008342100000163555
inst_left_right_1	27.19851800000015	stim	274		1	inst_left_right_1	28.38220420000016	0.008399499999995896
inst_left_right_1	27.206917500000145	stim	275		1	inst_left_right_1	28.390603700000156	0.00827579999986483
inst_left_right_1	27.21519330000001	stim	276		1	inst_left_right_1	28.39887950000002	0.00845860000003995
inst_left_right_1	27.22365190000005	stim	277		1	inst_left_right_1	28.40733810000006	0.008193200000050638
inst_left_right_1	27.2318451000001	stim	278		1	inst_left_right_1	28.41553130000011	0.008332699999982651
inst_left_right_1	27.240177800000083	stim	279		1	inst_left_right_1	28.423864000000094	0.008498400000007678
inst_left_right_1	27.24867620000009	stim	280		1	inst_left_right_1	28.432362400000102	0.008163899999999558
inst_left_right_1	27.25684010000009	stim	281		1	inst_left_right_1	28.4405263000001	0.008467800000062198
inst_left_right_1	27.265307900000153	stim	282		1	inst_left_right_1	28.448994100000164	0.008243699999866294
inst_left_right_1	27.27355160000002	stim	283		1	inst_left_right_1	28.45723780000003	0.008303900000100839
inst_left_right_1	27.28185550000012	stim	284		1	inst_left_right_1	28.46554170000013	0.008319999999912397
inst_left_right_1	27.290175500000032	stim	285		1	inst_left_right_1	28.473861700000043	0.008338800000046831
inst_left_right_1	27.29851430000008	stim	286		1	inst_left_right_1	28.48220050000009	0.008471899999904053
inst_left_right_1	27.306986199999983	stim	287		1	inst_left_right_1	28.490672399999994	0.008270900000070469
inst_left_right_1	27.315257100000053	stim	288		1	inst_left_right_1	28.498943300000064	0.00825299999996787
inst_left_right_1	27.32351010000002	stim	289		1	inst_left_right_1	28.507196300000032	0.008354100000133258
inst_left_right_1	27.331864200000155	stim	290		1	inst_left_right_1	28.515550400000166	0.008309699999927034
inst_left_right_1	27.34017390000008	stim	291		1	inst_left_right_1	28.523860100000093	0.008333199999924545
inst_left_right_1	27.348507100000006	stim	292		1	inst_left_right_1	28.532193300000017	0.008334900000136258
inst_left_right_1	27.356842000000142	stim	293		1	inst_left_right_1	28.540528200000153	0.008482199999889417
inst_left_right_1	27.365324200000032	stim	294		1	inst_left_right_1	28.549010400000043	0.00819139999998697
inst_left_right_1	27.37351560000002	stim	295		1	inst_left_right_1	28.55720180000003	0.00832370000011906
inst_left_right_1	27.381839300000138	stim	296		1	inst_left_right_1	28.56552550000015	0.00834379999992052
inst_left_right_1	27.39018310000006	stim	297		1	inst_left_right_1	28.57386930000007	0.008325300000024072
inst_left_right_1	27.398508400000082	stim	298		1	inst_left_right_1	28.582194600000093	0.008475899999893954
inst_left_right_1	27.406984299999976	stim	299		1	inst_left_right_1	28.590670499999987	0.008197700000209807
inst_left_right_1	27.415182000000186	stim	300		1	inst_left_right_1	28.598868200000197	0.008323199999949793
inst_left_right_1	27.423505200000136	stim	301		1	inst_left_right_1	28.607191400000147	0.008336200000030658
inst_left_right_1	27.431841400000167	stim	302		1	inst_left_right_1	28.615527600000178	0.008338200000025608
inst_left_right_1	27.440179600000192	stim	303		1	inst_left_right_1	28.623865800000203	0.008406399999785208
inst_left_right_1	27.448585999999978	stim	304		1	inst_left_right_1	28.63227219999999	0.008245500000157335
inst_left_right_1	27.456831500000135	stim	305		1	inst_left_right_1	28.640517700000146	0.008369799999854877
inst_left_right_1	27.46520129999999	stim	306		1	inst_left_right_1	28.6488875	0.00830590000009579
inst_left_right_1	27.473507200000086	stim	307		1	inst_left_right_1	28.657193400000097	0.008354900000085763
inst_left_right_1	27.48186210000017	stim	308		1	inst_left_right_1	28.665548300000182	0.008315799999991214
inst_left_right_1	27.490177900000162	stim	309		1	inst_left_right_1	28.673864100000173	0.008329499999945256
inst_left_right_1	27.498507400000108	stim	310		1	inst_left_right_1	28.68219360000012	0.008476400000063222
inst_left_right_1	27.50698380000017	stim	311		1	inst_left_right_1	28.690670000000182	0.008191599999918253
inst_left_right_1	27.51517540000009	stim	312		1	inst_left_right_1	28.6988616000001	0.00842119999992974
inst_left_right_1	27.52359660000002	stim	313		1	inst_left_right_1	28.70728280000003	0.0082406000001356
inst_left_right_1	27.531837200000155	stim	314		1	inst_left_right_1	28.715523400000166	0.008336499999813896
inst_left_right_1	27.54017369999997	stim	315		1	inst_left_right_1	28.72385989999998	0.00845700000013494
inst_left_right_1	27.548630700000103	stim	316		1	inst_left_right_1	28.732316900000114	0.008200199999919278
inst_left_right_1	27.556830900000023	stim	317		1	inst_left_right_1	28.740517100000034	0.008349599999974089
inst_left_right_1	27.565180499999997	stim	318		1	inst_left_right_1	28.748866700000008	0.008322300000145333
inst_left_right_1	27.573502800000142	stim	319		1	inst_left_right_1	28.757189000000153	0.008340899999893736
inst_left_right_1	27.581843700000036	stim	320		1	inst_left_right_1	28.765529900000047	0.00833809999994628
inst_left_right_1	27.590181799999982	stim	321		1	inst_left_right_1	28.773867999999993	0.00831970000012916
inst_left_right_1	27.59850150000011	stim	322		1	inst_left_right_1	28.782187700000122	0.0084102000000712
inst_left_right_1	27.606911700000182	stim	323		1	inst_left_right_1	28.790597900000193	0.008264299999837021
inst_left_right_1	27.61517600000002	stim	324		1	inst_left_right_1	28.79886220000003	0.00832500000001346
inst_left_right_1	27.623501000000033	stim	325		1	inst_left_right_1	28.807187200000044	0.008332999999993262
inst_left_right_1	27.631834000000026	stim	326		1	inst_left_right_1	28.815520200000037	0.008340999999973064
inst_left_right_1	27.640175	stim	327		1	inst_left_right_1	28.82386120000001	0.008491100000128426
inst_left_right_1	27.648666100000128	stim	328		1	inst_left_right_1	28.83235230000014	0.009543599999915386
inst_left_right_1	27.658209700000043	stim	329		1	inst_left_right_1	28.841895900000054	0.008498500000087006
inst_left_right_1	27.66670820000013	stim	330		1	inst_left_right_1	28.85039440000014	0.008279399999992165
inst_left_right_1	27.674987600000122	stim	331		1	inst_left_right_1	28.858673800000133	0.008385099999941303
inst_left_right_1	27.683372700000064	stim	332		1	inst_left_right_1	28.867058900000075	0.008393300000079762
inst_left_right_1	27.691766000000143	stim	333		1	inst_left_right_1	28.875452200000154	0.008259799999905226
inst_left_right_1	27.70002580000005	stim	334		1	inst_left_right_1	28.88371200000006	0.008316100000001825
inst_left_right_1	27.70834190000005	stim	335		1	inst_left_right_1	28.89202810000006	0.008356499999990774
inst_left_right_1	27.71669840000004	stim	336		1	inst_left_right_1	28.900384600000052	0.008385000000089349
inst_left_right_1	27.72508340000013	stim	337		1	inst_left_right_1	28.90876960000014	0.008292499999924985
inst_left_right_1	27.733375900000055	stim	338		1	inst_left_right_1	28.917062100000066	0.00830309999992096
inst_left_right_1	27.741678999999976	stim	339		1	inst_left_right_1	28.925365199999987	0.008451200000081371
inst_left_right_1	27.750130200000058	stim	340		1	inst_left_right_1	28.93381640000007	0.008210100000042075
inst_left_right_1	27.7583403000001	stim	341		1	inst_left_right_1	28.94202650000011	0.008387500000026193
inst_left_right_1	27.766727800000126	stim	342		1	inst_left_right_1	28.950414000000137	0.008279599999923448
inst_left_right_1	27.77500740000005	stim	343		1	inst_left_right_1	28.95869360000006	0.008332000000109474
inst_left_right_1	27.78333940000016	stim	344		1	inst_left_right_1	28.96702560000017	0.008407699999906981
inst_left_right_1	27.791747100000066	stim	345		1	inst_left_right_1	28.975433300000077	0.00827860000003966
inst_left_right_1	27.800025700000106	stim	346		1	inst_left_right_1	28.983711900000117	0.008287500000051296
inst_left_right_1	27.808313200000157	stim	347		1	inst_left_right_1	28.991999400000168	0.008373499999834166
inst_left_right_1	27.81668669999999	stim	348		1	inst_left_right_1	29.000372900000002	0.008336000000099375
inst_left_right_1	27.82502270000009	stim	349		1	inst_left_right_1	29.0087089000001	0.008328399999982139
inst_left_right_1	27.833351100000073	stim	350		1	inst_left_right_1	29.017037300000084	0.008321600000044782
inst_left_right_1	27.841672700000117	stim	351		1	inst_left_right_1	29.02535890000013	0.008476299999983894
inst_left_right_1	27.8501490000001	stim	352		1	inst_left_right_1	29.033835200000112	0.008188399999880858
inst_left_right_1	27.858337399999982	stim	353		1	inst_left_right_1	29.042023599999993	0.008375100000193925
inst_left_right_1	27.866712500000176	stim	354		1	inst_left_right_1	29.050398700000187	0.008407899999838264
inst_left_right_1	27.875120400000014	stim	355		1	inst_left_right_1	29.058806600000025	0.008236500000066371
inst_left_right_1	27.88335690000008	stim	356		1	inst_left_right_1	29.06704310000009	0.008437599999979284
inst_left_right_1	27.89179450000006	stim	357		1	inst_left_right_1	29.07548070000007	0.008226700000022902
inst_left_right_1	27.900021200000083	stim	358		1	inst_left_right_1	29.083707400000094	0.008323100000097838
inst_left_right_1	27.90834430000018	stim	359		1	inst_left_right_1	29.09203050000019	0.008352099999910934
inst_left_right_1	27.91669640000009	stim	360		1	inst_left_right_1	29.100382600000103	0.008294199999909324
inst_left_right_1	27.9249906	stim	361		1	inst_left_right_1	29.108676800000012	0.008500000000140062
inst_left_right_1	27.93349060000014	stim	362		1	inst_left_right_1	29.117176800000152	0.008189599999923303
inst_left_right_1	27.941680200000064	stim	363		1	inst_left_right_1	29.125366400000075	0.008360600000060003
inst_left_right_1	27.950040800000124	stim	364		1	inst_left_right_1	29.133727000000135	0.008302199999889126
inst_left_right_1	27.958343000000013	stim	365		1	inst_left_right_1	29.142029200000025	0.008405199999970137
inst_left_right_1	27.966748199999984	stim	366		1	inst_left_right_1	29.150434399999995	0.00829650000014226
inst_left_right_1	27.975044700000126	stim	367		1	inst_left_right_1	29.158730900000137	0.008308100000022023
inst_left_right_1	27.983352800000148	stim	368		1	inst_left_right_1	29.16703900000016	0.00844080000001668
inst_left_right_1	27.991793600000165	stim	369		1	inst_left_right_1	29.175479800000176	0.008225999999922351
inst_left_right_1	28.000019600000087	stim	370		1	inst_left_right_1	29.183705800000098	0.008307000000058906
inst_left_right_1	28.008326600000146	stim	371		1	inst_left_right_1	29.192012800000157	0.008362000000033731
inst_left_right_1	28.01668860000018	stim	372		1	inst_left_right_1	29.20037480000019	0.008315399999901274
inst_left_right_1	28.02500400000008	stim	373		1	inst_left_right_1	29.208690200000092	0.008434300000089934
inst_left_right_1	28.03343830000017	stim	374		1	inst_left_right_1	29.217124500000182	0.008219800000006217
inst_left_right_1	28.041658100000177	stim	375		1	inst_left_right_1	29.225344300000188	0.008342799999809358
inst_left_right_1	28.050000899999986	stim	376		1	inst_left_right_1	29.233687099999997	0.008370400000103473
inst_left_right_1	28.05837130000009	stim	377		1	inst_left_right_1	29.2420575000001	0.008340699999962453
inst_left_right_1	28.066712000000052	stim	378		1	inst_left_right_1	29.250398200000063	0.00835929999993823
inst_left_right_1	28.07507129999999	stim	379		1	inst_left_right_1	29.2587575	0.008271100000001752
inst_left_right_1	28.083342399999992	stim	380		1	inst_left_right_1	29.267028600000003	0.00832370000011906
inst_left_right_1	28.09166610000011	stim	381		1	inst_left_right_1	29.275352300000122	0.008428200000025754
inst_left_right_1	28.100094300000137	stim	382		1	inst_left_right_1	29.283780500000148	0.008277899999939109
inst_left_right_1	28.108372200000076	stim	383		1	inst_left_right_1	29.292058400000087	0.008297699999957331
inst_left_right_1	28.116669900000034	stim	384		1	inst_left_right_1	29.300356100000045	0.008324300000140283
inst_left_right_1	28.124994200000174	stim	385		1	inst_left_right_1	29.308680400000185	0.008446699999922203
inst_left_right_1	28.133440900000096	stim	386		1	inst_left_right_1	29.317127100000107	0.008221900000080495
inst_left_right_1	28.141662800000177	stim	387		1	inst_left_right_1	29.325349000000188	0.008351099999799771
inst_left_right_1	28.150013899999976	stim	388		1	inst_left_right_1	29.333700099999987	0.008304700000053344
inst_left_right_1	28.15831860000003	stim	389		1	inst_left_right_1	29.34200480000004	0.00837520000004588
inst_left_right_1	28.166693800000075	stim	390		1	inst_left_right_1	29.350380000000087	0.008392200000116645
inst_left_right_1	28.175086000000192	stim	391		1	inst_left_right_1	29.358772200000203	0.008343199999899298
inst_left_right_1	28.18342920000009	stim	392		1	inst_left_right_1	29.367115400000102	0.008279800000082105
inst_left_right_1	28.191709000000174	stim	393		1	inst_left_right_1	29.375395200000185	0.00829499999986183
inst_left_right_1	28.200004000000035	stim	394		1	inst_left_right_1	29.383690200000046	0.008345700000063516
inst_left_right_1	28.2083497000001	stim	395		1	inst_left_right_1	29.39203590000011	0.008452499999975771
inst_left_right_1	28.216802200000075	stim	396		1	inst_left_right_1	29.400488400000086	0.0081775999999536
inst_left_right_1	28.22497980000003	stim	397		1	inst_left_right_1	29.40866600000004	0.008355400000027657
inst_left_right_1	28.233335200000056	stim	398		1	inst_left_right_1	29.417021400000067	0.008326500000066517
inst_left_right_1	28.241661700000122	stim	399		1	inst_left_right_1	29.425347900000133	0.00835489999985839
inst_left_right_1	28.25001659999998	stim	400		1	inst_left_right_1	29.433702799999992	0.008319400000118549
inst_left_right_1	28.2583360000001	stim	401		1	inst_left_right_1	29.44202220000011	0.008350099999915983
inst_left_right_1	28.266686100000015	stim	402		1	inst_left_right_1	29.450372300000026	0.008408600000166189
inst_left_right_1	28.27509470000018	stim	403		1	inst_left_right_1	29.458780900000193	0.008251099999824874
inst_left_right_1	28.283345800000006	stim	404		1	inst_left_right_1	29.467032000000017	0.008328099999971528
inst_left_right_1	28.291673899999978	stim	405		1	inst_left_right_1	29.47536009999999	0.00835600000004888
inst_left_right_1	28.300029900000027	stim	406		1	inst_left_right_1	29.483716100000038	0.008288799999945695
inst_left_right_1	28.308318699999973	stim	407		1	inst_left_right_1	29.492004899999984	0.008490400000027876
inst_left_right_1	28.3168091	stim	408		1	inst_left_right_1	29.50049530000001	0.008202900000014779
inst_left_right_1	28.325012000000015	stim	409		1	inst_left_right_1	29.508698200000026	0.00833350000016253
inst_left_right_1	28.333345500000178	stim	410		1	inst_left_right_1	29.51703170000019	0.00838579999981448
inst_left_right_1	28.341731299999992	stim	411		1	inst_left_right_1	29.525417500000003	0.008273099999996703
inst_left_right_1	28.35000439999999	stim	412		1	inst_left_right_1	29.5336906	0.008315200000197365
inst_left_right_1	28.358319600000186	stim	413		1	inst_left_right_1	29.542005800000197	0.008354999999937718
inst_left_right_1	28.366674600000124	stim	414		1	inst_left_right_1	29.550360800000135	0.00843259999987822
inst_left_right_1	28.375107200000002	stim	415		1	inst_left_right_1	29.558793400000013	0.008234300000140138
inst_left_right_1	28.383341500000142	stim	416		1	inst_left_right_1	29.567027700000153	0.008319600000049832
inst_left_right_1	28.391661100000192	stim	417		1	inst_left_right_1	29.575347300000203	0.008353499999884662
inst_left_right_1	28.400014600000077	stim	418		1	inst_left_right_1	29.583700800000088	0.008360399999901347
inst_left_right_1	28.408374999999978	stim	419		1	inst_left_right_1	29.59206119999999	0.008415500000182874
inst_left_right_1	28.41679050000016	stim	420		1	inst_left_right_1	29.600476700000172	0.008199799999829338
inst_left_right_1	28.42499029999999	stim	421		1	inst_left_right_1	29.6086765	0.008342000000084226
inst_left_right_1	28.433332300000075	stim	422		1	inst_left_right_1	29.617018500000086	0.008337700000083714
inst_left_right_1	28.44167000000016	stim	423		1	inst_left_right_1	29.62535620000017	0.008334499999818945
inst_left_right_1	28.450004499999977	stim	424		1	inst_left_right_1	29.63369069999999	0.008441200000106619
inst_left_right_1	28.458445700000084	stim	425		1	inst_left_right_1	29.642131900000095	0.00822640000001229
inst_left_right_1	28.466672100000096	stim	426		1	inst_left_right_1	29.650358300000107	0.008293399999956819
inst_left_right_1	28.474965500000053	stim	427		1	inst_left_right_1	29.658651700000064	0.008368700000119134
inst_left_right_1	28.483334200000172	stim	428		1	inst_left_right_1	29.667020400000183	0.008336999999983163
inst_left_right_1	28.491671200000155	stim	429		1	inst_left_right_1	29.675357400000166	0.008333999999877051
inst_left_right_1	28.500005200000032	stim	430		1	inst_left_right_1	29.683691400000043	0.008328500000061467
inst_left_right_1	28.508333700000094	stim	431		1	inst_left_right_1	29.692019900000105	0.008449400000017704
inst_left_right_1	28.51678310000011	stim	432		1	inst_left_right_1	29.700469300000123	0.008202600000004168
inst_left_right_1	28.524985700000116	stim	433		1	inst_left_right_1	29.708671900000127	0.008358399999906396
inst_left_right_1	28.533344100000022	stim	434		1	inst_left_right_1	29.717030300000033	0.008338200000025608
inst_left_right_1	28.541682300000048	stim	435		1	inst_left_right_1	29.72536850000006	0.008317900000065492
inst_left_right_1	28.550000200000113	stim	436		1	inst_left_right_1	29.733686400000124	0.00840739999989637
inst_left_right_1	28.55840760000001	stim	437		1	inst_left_right_1	29.74209380000002	0.008272300000044197
inst_left_right_1	28.566679900000054	stim	438		1	inst_left_right_1	29.750366100000065	0.008403900000075737
inst_left_right_1	28.57508380000013	stim	439		1	inst_left_right_1	29.75877000000014	0.008257700000058321
inst_left_right_1	28.583341500000188	stim	440		1	inst_left_right_1	29.7670277000002	0.008321699999896737
inst_left_right_1	28.591663200000085	stim	441		1	inst_left_right_1	29.775349400000096	0.008427900000015143
inst_left_right_1	28.6000911000001	stim	442		1	inst_left_right_1	29.78377730000011	0.008206599999994069
inst_left_right_1	28.608297700000094	stim	443		1	inst_left_right_1	29.791983900000105	0.008391699999947377
inst_left_right_1	28.61668940000004	stim	444		1	inst_left_right_1	29.800375600000052	0.008310899999969479
inst_left_right_1	28.62500030000001	stim	445		1	inst_left_right_1	29.80868650000002	0.008345100000042294
inst_left_right_1	28.633345400000053	stim	446		1	inst_left_right_1	29.817031600000064	0.008292499999924985
inst_left_right_1	28.641637899999978	stim	447		1	inst_left_right_1	29.82532409999999	0.00834900000018024
inst_left_right_1	28.649986900000158	stim	448		1	inst_left_right_1	29.83367310000017	0.008480299999973795
inst_left_right_1	28.658467200000132	stim	449		1	inst_left_right_1	29.842153400000143	0.008204599999999118
inst_left_right_1	28.66667180000013	stim	450		1	inst_left_right_1	29.850358000000142	0.008401099999900907
inst_left_right_1	28.675072900000032	stim	451		1	inst_left_right_1	29.858759100000043	0.008284200000161945
inst_left_right_1	28.683357100000194	stim	452		1	inst_left_right_1	29.867043300000205	0.008315099999890663
inst_left_right_1	28.691672200000085	stim	453		1	inst_left_right_1	29.875358400000096	0.008395199999995384
inst_left_right_1	28.70006740000008	stim	454		1	inst_left_right_1	29.88375360000009	0.00826550000010684
inst_left_right_1	28.708332900000187	stim	455		1	inst_left_right_1	29.892019100000198	0.008334799999829556
inst_left_right_1	28.716667700000016	stim	456		1	inst_left_right_1	29.900353900000027	0.00830380000002151
inst_left_right_1	28.724971500000038	stim	457		1	inst_left_right_1	29.90865770000005	0.008359800000107498
inst_left_right_1	28.733331300000145	stim	458		1	inst_left_right_1	29.917017500000156	0.008388499999909982
inst_left_right_1	28.741719800000055	stim	459		1	inst_left_right_1	29.925406000000066	0.008368199999949866
inst_left_right_1	28.750088000000005	stim	460		1	inst_left_right_1	29.933774200000016	0.008340400000179216
inst_left_right_1	28.758428400000184	stim	461		1	inst_left_right_1	29.942114600000195	0.008227099999885468
inst_left_right_1	28.76665550000007	stim	462		1	inst_left_right_1	29.95034170000008	0.008352699999932156
inst_left_right_1	28.775008200000002	stim	463		1	inst_left_right_1	29.958694400000013	0.008432300000094983
inst_left_right_1	28.783440500000097	stim	464		1	inst_left_right_1	29.967126700000108	0.008201500000041051
inst_left_right_1	28.791642000000138	stim	465		1	inst_left_right_1	29.97532820000015	0.008465699999987919
inst_left_right_1	28.800107700000126	stim	466		1	inst_left_right_1	29.983793900000137	0.008214100000031976
inst_left_right_1	28.808321800000158	stim	467		1	inst_left_right_1	29.99200800000017	0.008337199999914446
inst_left_right_1	28.816659000000072	stim	468		1	inst_left_right_1	30.000345200000083	0.008314299999938157
inst_left_right_1	28.82497330000001	stim	469		1	inst_left_right_1	30.00865950000002	0.008337700000083714
inst_left_right_1	28.833311000000094	stim	470		1	inst_left_right_1	30.016997200000105	0.008411999999907493
inst_left_right_1	28.841723	stim	471		1	inst_left_right_1	30.025409200000013	0.008268700000144236
inst_left_right_1	28.849991700000146	stim	472		1	inst_left_right_1	30.033677900000157	0.008325099999865415
inst_left_right_1	28.85831680000001	stim	473		1	inst_left_right_1	30.042003000000022	0.008468500000162749
inst_left_right_1	28.866785300000174	stim	474		1	inst_left_right_1	30.050471500000185	0.008201899999903617
inst_left_right_1	28.874987200000078	stim	475		1	inst_left_right_1	30.05867340000009	0.008416299999908006
inst_left_right_1	28.883403499999986	stim	476		1	inst_left_right_1	30.067089699999997	0.008244100000183607
inst_left_right_1	28.89164760000017	stim	477		1	inst_left_right_1	30.07533380000018	0.008440299999847412
inst_left_right_1	28.900087900000017	stim	478		1	inst_left_right_1	30.083774100000028	0.008216500000116866
inst_left_right_1	28.908304400000134	stim	479		1	inst_left_right_1	30.091990600000145	0.7346161000000393
inst_amb_1	29.642920500000173	stim	0		1	inst_amb_1	30.826606700000184	0.008334899999908885
inst_amb_1	29.651255400000082	stim	1		1	inst_amb_1	30.834941600000093	0.008287299999892639
inst_amb_1	29.659542699999975	stim	2		1	inst_amb_1	30.843228899999986	0.008960500000057436
inst_amb_1	29.668503200000032	stim	3		1	inst_amb_1	30.852189400000043	0.0065480000000661676
inst_amb_1	29.675051200000098	stim	4		1	inst_amb_1	30.85873740000011	0.008265700000038123
inst_amb_1	29.683316900000136	stim	5		1	inst_amb_1	30.867003100000147	0.008967499999926076
inst_amb_1	29.692284400000062	stim	6		1	inst_amb_1	30.875970600000073	0.007912000000033004
inst_amb_1	29.700196400000095	stim	7		1	inst_amb_1	30.883882600000106	0.00870119999990493
inst_amb_1	29.7088976	stim	8		1	inst_amb_1	30.89258380000001	0.00833890000012616
inst_amb_1	29.717236500000126	stim	9		1	inst_amb_1	30.900922700000137	0.008317000000033659
inst_amb_1	29.72555350000016	stim	10		1	inst_amb_1	30.90923970000017	0.008383999999978187
inst_amb_1	29.73393750000014	stim	11		1	inst_amb_1	30.91762370000015	0.008302499999899737
inst_amb_1	29.742240000000038	stim	12		1	inst_amb_1	30.92592620000005	0.008317799999986164
inst_amb_1	29.750557800000024	stim	13		1	inst_amb_1	30.934244000000035	0.00835230000006959
inst_amb_1	29.758910100000094	stim	14		1	inst_amb_1	30.942596300000105	0.008321199999954842
inst_amb_1	29.76723130000005	stim	15		1	inst_amb_1	30.95091750000006	0.008322099999986676
