trial_nr	onset	event_type	phase	response	nr_frames	n_dots	sphere_radius	dot_size	rotation_speed	depth_mod_center	depth_mod_amp	ambiguous_dot_size	onset_abs	duration
0	0.008382100000062565	text	0		683								2.0541676000001416	5.7023461
0	5.69476300000008	response	0	space									7.740548500000159	
1	5.710728200000062	phase0	0		214	200.0	2.0	0.15	2.0	0.75	0.25	0.2	7.756513700000141	1.7834139999999934
1	7.494142200000056	phase1	1		480	200.0	2.0	0.15	2.0	0.75	0.25	0.2	9.539927700000135	3.9997329000000263
1	11.493875100000082	phase2	2		24	200.0	2.0	0.15	2.0	0.75	0.25	0.2	13.539660600000161	0.19998179999993226
1	11.693856900000014	phase3	3		360	200.0	2.0	0.15	2.0	0.75	0.25	0.2	13.739642400000093	2.9999056000000337
1	13.98582250000004	response	3	right		200.0	2.0	0.15	2.0	0.75	0.25	0.2	16.03160800000012	
2	14.693762500000048	phase0	0		156	200.0	2.0	0.15	2.0	0.75	0.25	0.2	16.739548000000127	1.299982200000045
2	15.993744700000093	phase1	1		480	200.0	2.0	0.15	2.0	0.75	0.25	0.2	18.039530200000172	3.9999470999999858
2	19.99369180000008	phase2	2		12	200.0	2.0	0.15	2.0	0.75	0.25	0.2	22.039477300000158	0.10002139999994597
2	20.093713200000025	phase3	3		360	200.0	2.0	0.15	2.0	0.75	0.25	0.2	22.139498700000104	2.9998130000000174
2	21.16053940000006	response	3	left		200.0	2.0	0.15	2.0	0.75	0.25	0.2	23.20632490000014	
3	23.093526200000042	phase0	0		211	200.0	2.0	0.15	2.0	0.75	0.25	0.2	25.13931170000012	1.7582705999999462
3	24.85179679999999	phase1	1		480	200.0	2.0	0.15	2.0	0.75	0.25	0.2	26.897582300000067	4.000459599999999
3	28.852256399999987	phase2	2		24	200.0	2.0	0.15	2.0	0.75	0.25	0.2	30.898041900000067	0.19998470000007273
3	29.05224110000006	phase3	3		360	200.0	2.0	0.15	2.0	0.75	0.25	0.2	31.09802660000014	2.999909099999968
3	30.427468599999997	response	3	right		200.0	2.0	0.15	2.0	0.75	0.25	0.2	32.47325410000008	
4	32.05215020000003	phase0	0		261	200.0	2.0	0.15	2.0	0.75	0.25	0.2	34.09793570000011	2.174938999999995
4	34.22708920000002	phase1	1		480	200.0	2.0	0.15	2.0	0.75	0.25	0.2	36.2728747000001	3.999878400000057
4	38.22696760000008	phase2	2		18	200.0	2.0	0.15	2.0	0.75	0.25	0.2	40.27275310000016	0.14993069999991349
4	38.37689829999999	phase3	3		360	200.0	2.0	0.15	2.0	0.75	0.25	0.2	40.42268380000007	2.999894900000072
4	39.610471300000086	response	3	right		200.0	2.0	0.15	2.0	0.75	0.25	0.2	41.656256800000165	
5	41.376793200000066	phase0	0		273	200.0	2.0	0.15	2.0	0.75	0.25	0.2	43.422578700000145	2.27499899999998
5	43.651792200000045	phase1	1		480	200.0	2.0	0.15	2.0	0.75	0.25	0.2	45.697577700000124	3.999873399999956
5	47.6516656	phase2	2		18	200.0	2.0	0.15	2.0	0.75	0.25	0.2	49.69745110000008	0.1500108000000182
5	47.80167640000002	phase3	3		360	200.0	2.0	0.15	2.0	0.75	0.25	0.2	49.8474619000001	2.9998906000000716
5	49.56850480000003	response	3	right		200.0	2.0	0.15	2.0	0.75	0.25	0.2	51.61429030000011	
6	50.80156700000009	phase0	0		157	200.0	2.0	0.15	2.0	0.75	0.25	0.2	52.84735250000017	1.3082974999999806
6	52.10986450000007	phase1	1		480	200.0	2.0	0.15	2.0	0.75	0.25	0.2	54.15565000000015	3.9998709999999846
6	56.109735500000056	phase2	2		18	200.0	2.0	0.15	2.0	0.75	0.25	0.2	58.155521000000135	0.15000980000002073
6	56.25974530000008	phase3	3		360	200.0	2.0	0.15	2.0	0.75	0.25	0.2	58.305530800000156	2.999911300000008
6	57.66652510000006	response	3	left		200.0	2.0	0.15	2.0	0.75	0.25	0.2	59.71231060000014	
7	59.259656600000085	phase0	0		177	200.0	2.0	0.15	2.0	0.75	0.25	0.2	61.305442100000164	1.4749441999999817
7	60.73460080000007	phase1	1		480	200.0	2.0	0.15	2.0	0.75	0.25	0.2	62.780386300000146	3.99988929999995
7	64.73449010000002	phase2	2		0	200.0	2.0	0.15	2.0	0.75	0.25	0.2	66.7802756000001	0.0022721000000274216
7	64.73676220000004	phase3	3		359	200.0	2.0	0.15	2.0	0.75	0.25	0.2	66.78254770000012	2.997613099999967
7	66.58464360000005	response	3	left		200.0	2.0	0.15	2.0	0.75	0.25	0.2	68.63042910000013	
8	67.73437530000001	phase0	0		143	200.0	2.0	0.15	2.0	0.75	0.25	0.2	69.78016080000009	1.191626000000042
8	68.92600130000005	phase1	1		480	200.0	2.0	0.15	2.0	0.75	0.25	0.2	70.97178680000013	3.999896499999977
8	72.92589780000003	phase2	2		12	200.0	2.0	0.15	2.0	0.75	0.25	0.2	74.97168330000011	0.09999560000005658
8	73.02589340000009	phase3	3		360	200.0	2.0	0.15	2.0	0.75	0.25	0.2	75.07167890000017	2.9999321999999893
8	74.23444200000006	response	3	right		200.0	2.0	0.15	2.0	0.75	0.25	0.2	76.28022750000014	
9	76.02582560000008	phase0	0		172	200.0	2.0	0.15	2.0	0.75	0.25	0.2	78.07161110000015	1.4332749999999805
9	77.45910060000006	phase1	1		480	200.0	2.0	0.15	2.0	0.75	0.25	0.2	79.50488610000014	3.9998606999999993
9	81.45896130000006	phase2	2		0	200.0	2.0	0.15	2.0	0.75	0.25	0.2	83.50474680000013	0.00216530000000148
9	81.46112660000006	phase3	3		359	200.0	2.0	0.15	2.0	0.75	0.25	0.2	83.50691210000014	2.997741700000006
9	82.8425039	response	3	left		200.0	2.0	0.15	2.0	0.75	0.25	0.2	84.88828940000008	
10	84.45886830000006	phase0	0		192	200.0	2.0	0.15	2.0	0.75	0.25	0.2	86.50465380000014	1.5999491000000035
10	86.05881740000007	phase1	1		480	200.0	2.0	0.15	2.0	0.75	0.25	0.2	88.10460290000015	3.9998984000000064
10	90.05871580000007	phase2	2		18	200.0	2.0	0.15	2.0	0.75	0.25	0.2	92.10450130000015	0.14978709999991224
10	90.20850289999998	phase3	3		360	200.0	2.0	0.15	2.0	0.75	0.25	0.2	92.25428840000006	3.000092000000109
10	91.85053170000003	response	3	left		200.0	2.0	0.15	2.0	0.75	0.25	0.2	93.89631720000011	
11	93.2085949000001	phase0	0		279	200.0	2.0	0.15	2.0	0.75	0.25	0.2	95.25438040000017	2.324959799999988
11	95.53355470000008	phase1	1		480	200.0	2.0	0.15	2.0	0.75	0.25	0.2	97.57934020000016	3.999838899999986
11	99.53339360000007	phase2	2		18	200.0	2.0	0.15	2.0	0.75	0.25	0.2	101.57917910000015	0.1500201000000061
11	99.68341370000007	phase3	3		358	200.0	2.0	0.15	2.0	0.75	0.25	0.2	101.72919920000015	2.9999156000000085
11	101.95864430000006	response	3	left		200.0	2.0	0.15	2.0	0.75	0.25	0.2	104.00442980000014	
12	102.68332930000008	phase0	0		323	200.0	2.0	0.15	2.0	0.75	0.25	0.2	104.72911480000016	2.6916140999999243
12	105.3749434	phase1	1		480	200.0	2.0	0.15	2.0	0.75	0.25	0.2	107.42072890000009	3.999832000000083
12	109.37477540000009	phase2	2		18	200.0	2.0	0.15	2.0	0.75	0.25	0.2	111.42056090000017	0.1499864999999545
12	109.52476190000004	phase3	3		360	200.0	2.0	0.15	2.0	0.75	0.25	0.2	111.57054740000012	2.999915299999998
12	111.34987090000004	response	3	right		200.0	2.0	0.15	2.0	0.75	0.25	0.2	113.39565640000012	
13	112.52467720000004	phase0	0		337	200.0	2.0	0.15	2.0	0.75	0.25	0.2	114.57046270000012	2.8082431999999926
13	115.33292040000003	phase1	1		480	200.0	2.0	0.15	2.0	0.75	0.25	0.2	117.37870590000011	3.999881999999957
13	119.33280239999999	phase2	2		36	200.0	2.0	0.15	2.0	0.75	0.25	0.2	121.37858790000007	0.299988800000051
13	119.63279120000004	phase3	3		360	200.0	2.0	0.15	2.0	0.75	0.25	0.2	121.67857670000012	2.999908000000005
13	121.06633010000007	response	3	right		200.0	2.0	0.15	2.0	0.75	0.25	0.2	123.11211560000015	
14	122.63269920000005	phase0	0		155	200.0	2.0	0.15	2.0	0.75	0.25	0.2	124.67848470000013	1.2916285999999673
14	123.92432780000001	phase1	1		480	200.0	2.0	0.15	2.0	0.75	0.25	0.2	125.9701133000001	3.9998712999999952
14	127.92419910000001	phase2	2		18	200.0	2.0	0.15	2.0	0.75	0.25	0.2	129.9699846000001	0.15000459999998839
14	128.0742037	phase3	3		360	200.0	2.0	0.15	2.0	0.75	0.25	0.2	130.11998920000008	2.99997570000005
14	129.6476537000001	response	3	right		200.0	2.0	0.15	2.0	0.75	0.25	0.2	131.69343920000017	
15	131.07417940000005	phase0	0		343	200.0	2.0	0.15	2.0	0.75	0.25	0.2	133.11996490000013	2.858163300000001
15	133.93234270000005	phase1	1		480	200.0	2.0	0.15	2.0	0.75	0.25	0.2	135.97812820000013	3.9998740999999427
15	137.9322168	phase2	2		6	200.0	2.0	0.15	2.0	0.75	0.25	0.2	139.97800230000007	0.05001070000002983
15	137.98222750000002	phase3	3		360	200.0	2.0	0.15	2.0	0.75	0.25	0.2	140.0280130000001	2.9998875
15	140.4823672	response	3	right		200.0	2.0	0.15	2.0	0.75	0.25	0.2	142.52815270000008	
16	140.98211500000002	phase0	0		163	200.0	2.0	0.15	2.0	0.75	0.25	0.2	143.0279005000001	1.358300100000065
16	142.3404151000001	phase1	1		480	200.0	2.0	0.15	2.0	0.75	0.25	0.2	144.38620060000017	3.9999074999999493
16	146.34032260000004	phase2	2		12	200.0	2.0	0.15	2.0	0.75	0.25	0.2	148.38610810000011	0.09998059999998077
16	146.44030320000002	phase3	3		360	200.0	2.0	0.15	2.0	0.75	0.25	0.2	148.4860887000001	2.999926000000073
16	147.6905395	response	3	right		200.0	2.0	0.15	2.0	0.75	0.25	0.2	149.73632500000008	
17	149.4402292000001	phase0	0		274	200.0	2.0	0.15	2.0	0.75	0.25	0.2	151.48601470000017	2.2832487999999103
17	151.723478	phase1	1		480	200.0	2.0	0.15	2.0	0.75	0.25	0.2	153.76926350000008	3.9998727000000827
17	155.72335070000008	phase2	2		24	200.0	2.0	0.15	2.0	0.75	0.25	0.2	157.76913620000016	0.19997259999991002
17	155.9233233	phase3	3		360	200.0	2.0	0.15	2.0	0.75	0.25	0.2	157.96910880000007	2.9999775
17	157.33014120000007	response	3	right		200.0	2.0	0.15	2.0	0.75	0.25	0.2	159.37592670000015	
18	158.9233008	phase0	0		210	200.0	2.0	0.15	2.0	0.75	0.25	0.2	160.96908630000007	1.7498963000000458
18	160.67319710000004	phase1	1		480	200.0	2.0	0.15	2.0	0.75	0.25	0.2	162.71898260000012	3.9998847000000524
18	164.6730818000001	phase2	2		36	200.0	2.0	0.15	2.0	0.75	0.25	0.2	166.71886730000017	0.2999814999999444
18	164.97306330000004	phase3	3		360	200.0	2.0	0.15	2.0	0.75	0.25	0.2	167.01884880000011	2.999925899999994
18	166.95654790000003	response	3	right		200.0	2.0	0.15	2.0	0.75	0.25	0.2	169.0023334000001	
19	167.97298920000003	phase0	0		178	200.0	2.0	0.15	2.0	0.75	0.25	0.2	170.0187747000001	1.4815441000000646
19	169.4545333000001	phase1	1		480	200.0	2.0	0.15	2.0	0.75	0.25	0.2	171.50031880000017	4.001613499999962
19	173.45614680000006	phase2	2		24	200.0	2.0	0.15	2.0	0.75	0.25	0.2	175.50193230000014	0.1999915000000101
19	173.65613830000007	phase3	3		360	200.0	2.0	0.15	2.0	0.75	0.25	0.2	175.70192380000015	2.9998932999999397
19	175.83963760000006	response	3	right		200.0	2.0	0.15	2.0	0.75	0.25	0.2	177.88542310000014	
20	176.6560316	phase0	0		330	200.0	2.0	0.15	2.0	0.75	0.25	0.2	178.70181710000008	2.749923400000057
20	179.40595500000006	phase1	1		480	200.0	2.0	0.15	2.0	0.75	0.25	0.2	181.45174050000014	3.999872900000014
20	183.40582790000008	phase2	2		18	200.0	2.0	0.15	2.0	0.75	0.25	0.2	185.45161340000016	0.15005709999991268
20	183.555885	phase3	3		360	200.0	2.0	0.15	2.0	0.75	0.25	0.2	185.60167050000007	2.9998635000000604
20	185.69762460000004	response	3	right		200.0	2.0	0.15	2.0	0.75	0.25	0.2	187.74341010000012	
21	186.55574850000005	phase0	0		252	200.0	2.0	0.15	2.0	0.75	0.25	0.2	188.60153400000013	2.0999950000000354
21	188.65574350000009	phase1	1		480	200.0	2.0	0.15	2.0	0.75	0.25	0.2	190.70152900000016	3.99981559999992
21	192.6555591	phase2	2		18	200.0	2.0	0.15	2.0	0.75	0.25	0.2	194.70134460000008	0.14999840000007225
21	192.80555750000008	phase3	3		360	200.0	2.0	0.15	2.0	0.75	0.25	0.2	194.85134300000016	2.9998934999999847
21	194.70566760000008	response	3	left		200.0	2.0	0.15	2.0	0.75	0.25	0.2	196.75145310000016	
22	195.80545100000006	phase0	0		300	200.0	2.0	0.15	2.0	0.75	0.25	0.2	197.85123650000014	2.49991
22	198.30536100000006	phase1	1		480	200.0	2.0	0.15	2.0	0.75	0.25	0.2	200.35114650000014	3.999896100000001
22	202.30525710000006	phase2	2		0	200.0	2.0	0.15	2.0	0.75	0.25	0.2	204.35104260000014	0.0020958999999720618
22	202.30735300000003	phase3	3		359	200.0	2.0	0.15	2.0	0.75	0.25	0.2	204.3531385000001	2.9977992000000313
22	204.12206290000006	response	3	left		200.0	2.0	0.15	2.0	0.75	0.25	0.2	206.16784840000014	
23	205.30515220000007	phase0	0		210	200.0	2.0	0.15	2.0	0.75	0.25	0.2	207.35093770000015	1.748221199999989
23	207.05337340000005	phase1	1		479	200.0	2.0	0.15	2.0	0.75	0.25	0.2	209.09915890000013	3.9932925000000523
23	211.0466659000001	phase2	2		30	200.0	2.0	0.15	2.0	0.75	0.25	0.2	213.0924514000002	0.2500244999998813
23	211.2966904	phase3	3		360	200.0	2.0	0.15	2.0	0.75	0.25	0.2	213.34247590000007	2.9998330000000806
23	213.53846550000003	response	3	right		200.0	2.0	0.15	2.0	0.75	0.25	0.2	215.5842510000001	
24	214.29652340000007	phase0	0		150	200.0	2.0	0.15	2.0	0.75	0.25	0.2	216.34230890000015	1.249988999999914
24	215.54651239999998	phase1	1		480	200.0	2.0	0.15	2.0	0.75	0.25	0.2	217.59229790000006	3.999862699999994
24	219.54637509999998	phase2	2		12	200.0	2.0	0.15	2.0	0.75	0.25	0.2	221.59216060000006	0.1000550999999632
24	219.64643019999994	phase3	3		360	200.0	2.0	0.15	2.0	0.75	0.25	0.2	221.69221570000002	2.9999189000000115
24	221.48840229999996	response	3	right		200.0	2.0	0.15	2.0	0.75	0.25	0.2	223.53418780000004	
25	222.64634909999995	phase0	0		278	200.0	2.0	0.15	2.0	0.75	0.25	0.2	224.69213460000003	2.3165645000001405
25	224.9629136000001	phase1	1		480	200.0	2.0	0.15	2.0	0.75	0.25	0.2	227.00869910000017	3.999852499999861
25	228.96276609999995	phase2	2		30	200.0	2.0	0.15	2.0	0.75	0.25	0.2	231.00855160000003	0.2500145000001339
25	229.2127806000001	phase3	3		360	200.0	2.0	0.15	2.0	0.75	0.25	0.2	231.25856610000017	2.9998756999998477
25	231.03790870000012	response	3	left		200.0	2.0	0.15	2.0	0.75	0.25	0.2	233.0836942000002	
26	232.21265629999994	phase0	0		246	200.0	2.0	0.15	2.0	0.75	0.25	0.2	234.2584418	2.049773200000118
26	234.26242950000005	phase1	1		480	200.0	2.0	0.15	2.0	0.75	0.25	0.2	236.30821500000013	3.9998668000000634
26	238.26229630000012	phase2	2		18	200.0	2.0	0.15	2.0	0.75	0.25	0.2	240.3080818000002	0.1501771999999164
26	238.41247350000003	phase3	3		360	200.0	2.0	0.15	2.0	0.75	0.25	0.2	240.4582590000001	2.9999127000000954
26	239.9961327000001	response	3	left		200.0	2.0	0.15	2.0	0.75	0.25	0.2	242.04191820000017	
27	241.41238620000013	phase0	0		202	200.0	2.0	0.15	2.0	0.75	0.25	0.2	243.4581717000002	1.6833056999998917
27	243.09569190000002	phase1	1		480	200.0	2.0	0.15	2.0	0.75	0.25	0.2	245.1414774000001	3.999896499999977
27	247.0955884	phase2	2		0	200.0	2.0	0.15	2.0	0.75	0.25	0.2	249.14137390000008	0.0022289000000910164
27	247.0978173000001	phase3	3		359	200.0	2.0	0.15	2.0	0.75	0.25	0.2	249.14360280000017	2.997622500000034
27	249.21237940000015	response	3	left		200.0	2.0	0.15	2.0	0.75	0.25	0.2	251.25816490000022	
28	250.09543980000012	phase0	0		284	200.0	2.0	0.15	2.0	0.75	0.25	0.2	252.1412253000002	2.3665876000000026
28	252.46202740000012	phase1	1		480	200.0	2.0	0.15	2.0	0.75	0.25	0.2	254.5078129000002	3.9999061999999412
28	256.46193360000007	phase2	2		36	200.0	2.0	0.15	2.0	0.75	0.25	0.2	258.50771910000014	0.3000442000000021
28	256.76197780000007	phase3	3		360	200.0	2.0	0.15	2.0	0.75	0.25	0.2	258.80776330000015	2.999896300000046
28	258.31208119999997	response	3	right		200.0	2.0	0.15	2.0	0.75	0.25	0.2	260.35786670000005	
29	259.7618741000001	phase0	0		245	200.0	2.0	0.15	2.0	0.75	0.25	0.2	261.8076596000002	2.0415671999999176
29	261.80344130000003	phase1	1		480	200.0	2.0	0.15	2.0	0.75	0.25	0.2	263.8492268000001	3.9998407999999017
29	265.80328209999993	phase2	2		18	200.0	2.0	0.15	2.0	0.75	0.25	0.2	267.8490676	0.15001210000013998
29	265.9532942000001	phase3	3		360	200.0	2.0	0.15	2.0	0.75	0.25	0.2	267.99907970000015	2.999927200000002
29	268.07016640000006	response	3	left		200.0	2.0	0.15	2.0	0.75	0.25	0.2	270.11595190000014	
30	268.9532214000001	phase0	0		338	200.0	2.0	0.15	2.0	0.75	0.25	0.2	270.99900690000015	2.816547700000001
30	271.7697691000001	phase1	1		480	200.0	2.0	0.15	2.0	0.75	0.25	0.2	273.81555460000016	3.9998884999999973
30	275.7696576000001	phase2	2		36	200.0	2.0	0.15	2.0	0.75	0.25	0.2	277.81544310000015	0.2999944000000596
30	276.06965200000013	phase3	3		360	200.0	2.0	0.15	2.0	0.75	0.25	0.2	278.1154375000002	2.9999219999999696
30	278.0536727000001	response	3	right		200.0	2.0	0.15	2.0	0.75	0.25	0.2	280.0994582000002	
31	279.0695740000001	phase0	0		344	200.0	2.0	0.15	2.0	0.75	0.25	0.2	281.1153595000002	2.8665624000000207
31	281.9361364000001	phase1	1		480	200.0	2.0	0.15	2.0	0.75	0.25	0.2	283.9819219000002	3.9998967999999877
31	285.9360332000001	phase2	2		12	200.0	2.0	0.15	2.0	0.75	0.25	0.2	287.9818187000002	0.0999867999998969
31	286.03602	phase3	3		360	200.0	2.0	0.15	2.0	0.75	0.25	0.2	288.0818055000001	2.999905000000126
31	288.10283030000005	response	3	right		200.0	2.0	0.15	2.0	0.75	0.25	0.2	290.14861580000013	
32	289.03592500000013	phase0	0		301	200.0	2.0	0.15	2.0	0.75	0.25	0.2	291.0817105000002	2.508243999999877
32	291.544169	phase1	1		480	200.0	2.0	0.15	2.0	0.75	0.25	0.2	293.5899545000001	3.9998814000000493
32	295.54405040000006	phase2	2		30	200.0	2.0	0.15	2.0	0.75	0.25	0.2	297.58983590000014	0.24997319999988576
32	295.79402359999995	phase3	3		360	200.0	2.0	0.15	2.0	0.75	0.25	0.2	297.8398091	2.999928600000203
32	297.80254850000006	response	3	right		200.0	2.0	0.15	2.0	0.75	0.25	0.2	299.84833400000014	
33	298.79395220000015	phase0	0		153	200.0	2.0	0.15	2.0	0.75	0.25	0.2	300.8397377000002	1.273247199999787
33	300.06719939999994	phase1	1		480	200.0	2.0	0.15	2.0	0.75	0.25	0.2	302.1129849	4.001610100000107
33	304.06880950000004	phase2	2		30	200.0	2.0	0.15	2.0	0.75	0.25	0.2	306.1145950000001	0.2497768000000633
33	304.3185863000001	phase3	3		360	200.0	2.0	0.15	2.0	0.75	0.25	0.2	306.3643718000002	3.000102099999822
33	306.2522954000001	response	3	right		200.0	2.0	0.15	2.0	0.75	0.25	0.2	308.2980809000002	
34	307.3186883999999	phase0	0		316	200.0	2.0	0.15	2.0	0.75	0.25	0.2	309.3644739	2.6332527000001846
34	309.9519411000001	phase1	1		480	200.0	2.0	0.15	2.0	0.75	0.25	0.2	311.9977266000002	3.9998875999999655
34	313.9518287000001	phase2	2		36	200.0	2.0	0.15	2.0	0.75	0.25	0.2	315.99761420000016	0.29825510000000577
34	314.2500838000001	phase3	3		360	200.0	2.0	0.15	2.0	0.75	0.25	0.2	316.29586930000016	3.001646400000027
34	316.13533440000015	response	3	right		200.0	2.0	0.15	2.0	0.75	0.25	0.2	318.1811199000002	
35	317.2517302000001	phase0	0		270	200.0	2.0	0.15	2.0	0.75	0.25	0.2	319.2975157000002	2.24998370000003
35	319.50171390000014	phase1	1		480	200.0	2.0	0.15	2.0	0.75	0.25	0.2	321.5474994000002	3.9998072999999295
35	323.50152120000007	phase2	2		18	200.0	2.0	0.15	2.0	0.75	0.25	0.2	325.54730670000015	0.1499997999999323
35	323.651521	phase3	3		360	200.0	2.0	0.15	2.0	0.75	0.25	0.2	325.6973065000001	2.999899300000152
35	326.16838759999996	response	3	right		200.0	2.0	0.15	2.0	0.75	0.25	0.2	328.21417310000004	
36	326.65142030000015	phase0	0		244	200.0	2.0	0.15	2.0	0.75	0.25	0.2	328.69720580000023	2.033312799999976
36	328.68473310000013	phase1	1		480	200.0	2.0	0.15	2.0	0.75	0.25	0.2	330.7305186000002	3.9998456999999235
36	332.68457880000005	phase2	2		0	200.0	2.0	0.15	2.0	0.75	0.25	0.2	334.73036430000013	0.00218300000005911
36	332.6867618000001	phase3	3		359	200.0	2.0	0.15	2.0	0.75	0.25	0.2	334.7325473000002	2.9977429999999003
36	334.7264143	response	3	right		200.0	2.0	0.15	2.0	0.75	0.25	0.2	336.77219980000007	
37	335.6845048	phase0	0		174	200.0	2.0	0.15	2.0	0.75	0.25	0.2	337.7302903000001	1.449931099999958
37	337.13443589999997	phase1	1		480	200.0	2.0	0.15	2.0	0.75	0.25	0.2	339.18022140000005	3.999869600000011
37	341.1343055	phase2	2		6	200.0	2.0	0.15	2.0	0.75	0.25	0.2	343.18009100000006	0.05000730000006115
37	341.18431280000004	phase3	3		360	200.0	2.0	0.15	2.0	0.75	0.25	0.2	343.2300983000001	2.9982142999999724
37	343.68270299999995	response	3	right		200.0	2.0	0.15	2.0	0.75	0.25	0.2	345.7284885	
38	344.1825271	phase0	0		207	200.0	2.0	0.15	2.0	0.75	0.25	0.2	346.2283126000001	1.7266798000000563
38	345.9092069000001	phase1	1		480	200.0	2.0	0.15	2.0	0.75	0.25	0.2	347.95499240000015	3.999846499999876
38	349.90905339999995	phase2	2		0	200.0	2.0	0.15	2.0	0.75	0.25	0.2	351.9548389	0.00210800000013478
38	349.9111614000001	phase3	3		359	200.0	2.0	0.15	2.0	0.75	0.25	0.2	351.95694690000016	2.997856400000046
38	352.3925755	response	3	right		200.0	2.0	0.15	2.0	0.75	0.25	0.2	354.4383610000001	
39	352.90901780000013	phase0	0		203	200.0	2.0	0.15	2.0	0.75	0.25	0.2	354.9548033000002	1.691554399999859
39	354.6005722	phase1	1		480	200.0	2.0	0.15	2.0	0.75	0.25	0.2	356.64635770000007	3.9998586000001524
39	358.60043080000014	phase2	2		12	200.0	2.0	0.15	2.0	0.75	0.25	0.2	360.6462163000002	0.09828489999995327
39	358.6987157000001	phase3	3		360	200.0	2.0	0.15	2.0	0.75	0.25	0.2	360.7445012000002	3.0016435
39	361.1006093000001	response	3	right		200.0	2.0	0.15	2.0	0.75	0.25	0.2	363.14639480000017	
40	361.7003592000001	phase0	0		258	200.0	2.0	0.15	2.0	0.75	0.25	0.2	363.7461447000002	2.14996229999997
40	363.85032150000006	phase1	1		480	200.0	2.0	0.15	2.0	0.75	0.25	0.2	365.89610700000014	3.9998441000000184
40	367.8501656000001	phase2	2		36	200.0	2.0	0.15	2.0	0.75	0.25	0.2	369.89595110000016	0.29999309999993784
40	368.1501587	phase3	3		360	200.0	2.0	0.15	2.0	0.75	0.25	0.2	370.1959442000001	2.9998875000001135
40	370.55862920000004	response	3	right		200.0	2.0	0.15	2.0	0.75	0.25	0.2	372.6044147000001	
41	371.15004620000013	phase0	0		93	200.0	2.0	0.15	2.0	0.75	0.25	0.2	373.1958317000002	0.7732711999999538
41	371.9233174000001	phase1	1		60	200.0	2.0	0.15	2.0	0.75	0.25	0.2	373.96910290000017	0.5000271999999768
41	372.42334460000006	phase2	2		219	200.0	2.0	0.15	2.0	0.75	0.25	0.2	374.46913010000014	1.8266237000000274
